Time,Extension,Load
(sec),(mm),(N)
0.00000,9.96269,0.00006
0.10000,9.96269,0.00011
0.20000,9.96061,-0.00008
0.30000,9.95207,-0.00093
0.40000,9.94498,-0.00175
0.50000,9.93936,-0.00238
0.60000,9.93373,-0.00310
0.70000,9.92832,-0.00378
0.80000,9.92290,-0.00447
0.90000,9.91769,-0.00514
1.00000,9.91269,-0.00584
1.10000,9.90769,-0.00654
1.20000,9.90269,-0.00732
1.30000,9.89811,-0.00801
1.40000,9.89311,-0.00880
1.50000,9.88811,-0.00965
1.60000,9.88290,-0.01051
1.70000,9.87811,-0.01132
1.80000,9.87311,-0.01228
1.90000,9.86811,-0.01314
2.00000,9.86290,-0.01412
2.10000,9.85832,-0.01497
2.20000,9.85311,-0.01600
2.30000,9.84790,-0.01697
2.40000,9.84290,-0.01799
2.50000,9.83811,-0.01905
2.60000,9.83332,-0.02004
2.70000,9.82832,-0.02103
2.80000,9.82311,-0.02219
2.90000,9.81832,-0.02320
3.00000,9.81311,-0.02442
3.10000,9.80790,-0.02563
3.20000,9.80290,-0.02673
3.30000,9.79790,-0.02795
3.40000,9.79290,-0.02908
3.50000,9.78811,-0.03017
3.60000,9.78311,-0.03143
3.70000,9.77832,-0.03253
3.80000,9.77290,-0.03382
3.90000,9.76790,-0.03512
4.00000,9.76248,-0.03648
4.10000,9.75748,-0.03787
4.20000,9.75269,-0.03898
4.30000,9.74811,-0.04017
4.40000,9.74269,-0.04163
4.50000,9.73748,-0.04298
4.60000,9.73228,-0.04443
4.70000,9.72727,-0.04577
4.80000,9.72248,-0.04718
4.90000,9.71748,-0.04855
5.00000,9.71269,-0.04987
5.10000,9.70790,-0.05129
5.20000,9.70290,-0.05271
5.30000,9.69811,-0.05409
5.40000,9.69290,-0.05559
5.50000,9.68769,-0.05712
5.60000,9.68269,-0.05872
5.70000,9.67769,-0.06015
5.80000,9.67290,-0.06160
5.90000,9.66811,-0.06306
6.00000,9.66332,-0.06452
6.10000,9.65811,-0.06602
6.20000,9.65290,-0.06774
6.30000,9.64790,-0.06923
6.40000,9.64290,-0.07079
6.50000,9.63790,-0.07234
6.60000,9.63311,-0.07374
6.70000,9.62811,-0.07524
6.80000,9.62332,-0.07661
6.90000,9.61811,-0.07793
7.00000,9.61290,-0.07954
7.10000,9.60769,-0.08117
7.20000,9.60269,-0.08287
7.30000,9.59790,-0.08453
7.40000,9.59332,-0.08606
7.50000,9.58811,-0.08785
7.60000,9.58332,-0.08959
7.70000,9.57790,-0.09131
7.80000,9.57227,-0.09343
7.90000,9.56728,-0.09530
8.00000,9.56269,-0.09689
8.10000,9.55769,-0.09865
8.20000,9.55290,-0.10024
8.30000,9.54811,-0.10195
8.40000,9.54332,-0.10375
8.50000,9.53811,-0.10549
8.60000,9.53248,-0.10769
8.70000,9.52728,-0.10977
8.80000,9.52248,-0.11151
8.90000,9.51748,-0.11330
9.00000,9.51290,-0.11507
9.10000,9.50790,-0.11691
9.20000,9.50311,-0.11875
9.30000,9.49811,-0.12072
9.40000,9.49290,-0.12267
9.50000,9.48769,-0.12470
9.60000,9.48290,-0.12664
9.70000,9.47769,-0.12869
9.80000,9.47290,-0.13062
9.90000,9.46769,-0.13272
10.00000,9.46311,-0.13453
10.01400,9.46228,-0.13475
10.01600,9.46228,-0.13479
10.11600,9.46082,-0.13510
10.21600,9.46082,-0.13411
10.31600,9.46082,-0.13321
10.41600,9.46082,-0.13236
10.51600,9.46082,-0.13159
10.61600,9.46082,-0.13084
10.71600,9.46082,-0.13012
10.81600,9.46082,-0.12950
10.91600,9.46082,-0.12889
11.01600,9.46082,-0.12829
11.11600,9.46082,-0.12777
11.21600,9.46082,-0.12714
11.31600,9.46082,-0.12660
11.41600,9.46123,-0.12603
11.51600,9.46123,-0.12552
11.61600,9.46123,-0.12502
11.71600,9.46144,-0.12458
11.81600,9.46144,-0.12404
11.91600,9.46144,-0.12355
12.01600,9.46165,-0.12307
12.11600,9.46165,-0.12260
12.21600,9.46186,-0.12211
12.31600,9.46186,-0.12174
12.41600,9.46186,-0.12133
12.51600,9.46186,-0.12089
12.61600,9.46186,-0.12046
12.71600,9.46207,-0.12005
12.81600,9.46207,-0.11966
12.91600,9.46207,-0.11924
13.01600,9.46207,-0.11887
13.11600,9.46207,-0.11850
13.21600,9.46207,-0.11816
13.31600,9.46207,-0.11778
13.41600,9.46207,-0.11741
13.51600,9.46228,-0.11707
13.61600,9.46228,-0.11674
13.71600,9.46228,-0.11638
13.81600,9.46228,-0.11602
13.91600,9.46228,-0.11572
14.01600,9.46228,-0.11538
14.11600,9.46228,-0.11507
14.21600,9.46228,-0.11476
14.31600,9.46228,-0.11448
14.41600,9.46228,-0.11412
14.51600,9.46228,-0.11384
14.61600,9.46228,-0.11352
14.71600,9.46228,-0.11321
14.81600,9.46228,-0.11295
14.91600,9.46228,-0.11250
15.01600,9.46228,-0.11218
15.11600,9.46228,-0.11187
15.21600,9.46228,-0.11155
15.31600,9.46228,-0.11129
15.41600,9.46228,-0.11103
15.51600,9.46228,-0.11073
15.61600,9.46228,-0.11047
15.71600,9.46228,-0.11024
15.81600,9.46228,-0.10991
15.91600,9.46228,-0.10966
16.01600,9.46228,-0.10937
16.11600,9.46228,-0.10913
16.21600,9.46228,-0.10884
16.31600,9.46228,-0.10861
16.41600,9.46228,-0.10836
16.51600,9.46228,-0.10811
16.61600,9.46228,-0.10784
16.71600,9.46228,-0.10760
16.81600,9.46228,-0.10736
16.91600,9.46228,-0.10711
17.01600,9.46228,-0.10689
17.11600,9.46228,-0.10662
17.21600,9.46228,-0.10634
17.31600,9.46228,-0.10610
17.41600,9.46228,-0.10590
17.51600,9.46228,-0.10567
17.61600,9.46228,-0.10542
17.71600,9.46228,-0.10521
17.81600,9.46228,-0.10498
17.91600,9.46228,-0.10474
18.01600,9.46228,-0.10450
18.11600,9.46228,-0.10430
18.21600,9.46228,-0.10402
18.31600,9.46228,-0.10383
18.41600,9.46228,-0.10363
18.51600,9.46228,-0.10340
18.61600,9.46228,-0.10319
18.71600,9.46228,-0.10294
18.81600,9.46228,-0.10274
18.91600,9.46228,-0.10252
19.01600,9.46228,-0.10230
19.11600,9.46228,-0.10209
19.21600,9.46228,-0.10190
19.31600,9.46228,-0.10169
19.41600,9.46228,-0.10146
19.51600,9.46228,-0.10126
19.61600,9.46228,-0.10107
19.71600,9.46228,-0.10088
19.81600,9.46228,-0.10064
19.91600,9.46228,-0.10044
20.01600,9.46228,-0.10025
20.11600,9.46228,-0.10004
20.21600,9.46228,-0.09984
20.31600,9.46228,-0.09967
20.41600,9.46228,-0.09950
20.51600,9.46228,-0.09931
20.61600,9.46228,-0.09912
20.71600,9.46228,-0.09891
20.81600,9.46228,-0.09871
20.91600,9.46228,-0.09852
21.01600,9.46228,-0.09835
21.11600,9.46228,-0.09814
21.21600,9.46228,-0.09797
21.31600,9.46228,-0.09777
21.41600,9.46228,-0.09757
21.51600,9.46228,-0.09739
21.61600,9.46228,-0.09720
21.71600,9.46228,-0.09705
21.81600,9.46228,-0.09686
21.91600,9.46228,-0.09666
22.01600,9.46228,-0.09649
22.11600,9.46228,-0.09629
22.21600,9.46228,-0.09613
22.31600,9.46228,-0.09597
22.41600,9.46228,-0.09579
22.51600,9.46228,-0.09561
22.61600,9.46228,-0.09545
22.71600,9.46228,-0.09524
22.81600,9.46228,-0.09505
22.91600,9.46228,-0.09490
23.01600,9.46228,-0.09474
23.11600,9.46228,-0.09457
23.21600,9.46228,-0.09442
23.31600,9.46228,-0.09426
23.41600,9.46228,-0.09406
23.51600,9.46228,-0.09391
23.61600,9.46228,-0.09375
23.71600,9.46228,-0.09363
23.81600,9.46228,-0.09345
23.91600,9.46228,-0.09329
24.01600,9.46228,-0.09309
24.11600,9.46228,-0.09298
24.21600,9.46228,-0.09280
24.31600,9.46228,-0.09265
24.41600,9.46228,-0.09251
24.51600,9.46228,-0.09232
24.61600,9.46228,-0.09219
24.71600,9.46228,-0.09201
24.81600,9.46228,-0.09185
24.91600,9.46228,-0.09171
25.01600,9.46228,-0.09157
25.11600,9.46228,-0.09140
25.21600,9.46228,-0.09124
25.31600,9.46228,-0.09111
25.41600,9.46228,-0.09094
25.51600,9.46228,-0.09082
25.61600,9.46228,-0.09063
25.71600,9.46228,-0.09051
25.81600,9.46228,-0.09038
25.91600,9.46228,-0.09023
26.01600,9.46228,-0.09010
26.11600,9.46228,-0.08995
26.21600,9.46228,-0.08979
26.31600,9.46228,-0.08967
26.41600,9.46228,-0.08954
26.51600,9.46228,-0.08936
26.61600,9.46228,-0.08923
26.71600,9.46228,-0.08903
26.81600,9.46228,-0.08894
26.91600,9.46228,-0.08878
27.01600,9.46228,-0.08860
27.11600,9.46228,-0.08851
27.21600,9.46228,-0.08838
27.31600,9.46228,-0.08823
27.41600,9.46228,-0.08811
27.51600,9.46228,-0.08793
27.61600,9.46228,-0.08779
27.71600,9.46228,-0.08768
27.81600,9.46228,-0.08756
27.91600,9.46228,-0.08743
28.01600,9.46228,-0.08726
28.11600,9.46228,-0.08715
28.21600,9.46228,-0.08702
28.31600,9.46228,-0.08689
28.41600,9.46228,-0.08676
28.51600,9.46228,-0.08663
28.61600,9.46228,-0.08649
28.71600,9.46228,-0.08636
28.81600,9.46228,-0.08622
28.91600,9.46228,-0.08609
29.01600,9.46228,-0.08595
29.11600,9.46228,-0.08585
29.21600,9.46228,-0.08572
29.31600,9.46228,-0.08558
29.41600,9.46228,-0.08547
29.51600,9.46228,-0.08534
29.61600,9.46228,-0.08520
29.71600,9.46228,-0.08512
29.81600,9.46228,-0.08499
29.91600,9.46228,-0.08482
30.01600,9.46228,-0.08475
30.11600,9.46228,-0.08461
30.21600,9.46228,-0.08448
30.31600,9.46228,-0.08437
30.41600,9.46228,-0.08422
30.51600,9.46228,-0.08415
30.61600,9.46228,-0.08399
30.71600,9.46228,-0.08387
30.81600,9.46228,-0.08378
30.91600,9.46228,-0.08364
31.01600,9.46228,-0.08351
31.11600,9.46228,-0.08341
31.21600,9.46228,-0.08330
31.31600,9.46228,-0.08317
31.41600,9.46228,-0.08303
31.51600,9.46228,-0.08294
31.61600,9.46228,-0.08282
31.71600,9.46228,-0.08271
31.81600,9.46228,-0.08259
31.91600,9.46228,-0.08247
32.01600,9.46228,-0.08237
32.11600,9.46228,-0.08220
32.21600,9.46228,-0.08211
32.31600,9.46228,-0.08201
32.41600,9.46228,-0.08193
32.51600,9.46228,-0.08178
32.61600,9.46228,-0.08171
32.71600,9.46228,-0.08156
32.81600,9.46228,-0.08147
32.91600,9.46228,-0.08131
33.01600,9.46228,-0.08127
33.11600,9.46228,-0.08114
33.21600,9.46228,-0.08104
33.31600,9.46228,-0.08092
33.41600,9.46228,-0.08077
33.51600,9.46228,-0.08071
33.61600,9.46228,-0.08058
33.71600,9.46228,-0.08048
33.81600,9.46228,-0.08038
33.91600,9.46228,-0.08028
34.01600,9.46228,-0.08015
34.11600,9.46228,-0.08004
34.21600,9.46228,-0.07994
34.31600,9.46228,-0.07988
34.41600,9.46228,-0.07979
34.51600,9.46228,-0.07966
34.61600,9.46228,-0.07956
34.71600,9.46228,-0.07944
34.81600,9.46228,-0.07934
34.91600,9.46228,-0.07923
35.01600,9.46228,-0.07913
35.11600,9.46228,-0.07905
35.21600,9.46228,-0.07895
35.31600,9.46228,-0.07883
35.41600,9.46228,-0.07875
35.51600,9.46228,-0.07863
35.61600,9.46228,-0.07854
35.71600,9.46228,-0.07843
35.81600,9.46228,-0.07833
35.91600,9.46228,-0.07821
36.01600,9.46228,-0.07811
36.11600,9.46228,-0.07802
36.21600,9.46228,-0.07794
36.31600,9.46228,-0.07784
36.41600,9.46228,-0.07776
36.51600,9.46228,-0.07766
36.61600,9.46228,-0.07755
36.71600,9.46228,-0.07743
36.81600,9.46228,-0.07737
36.91600,9.46228,-0.07725
37.01600,9.46228,-0.07716
37.11600,9.46228,-0.07709
37.21600,9.46228,-0.07699
37.31600,9.46228,-0.07688
37.41600,9.46228,-0.07678
37.51600,9.46228,-0.07668
37.61600,9.46228,-0.07660
37.71600,9.46228,-0.07653
37.81600,9.46228,-0.07644
37.91600,9.46228,-0.07633
38.01600,9.46228,-0.07627
38.11600,9.46228,-0.07617
38.21600,9.46228,-0.07603
38.31600,9.46228,-0.07594
38.41600,9.46228,-0.07591
38.51600,9.46228,-0.07577
38.61600,9.46228,-0.07571
38.71600,9.46228,-0.07561
38.81600,9.46228,-0.07552
38.91600,9.46228,-0.07541
39.01600,9.46228,-0.07536
39.11600,9.46228,-0.07522
39.21600,9.46228,-0.07512
39.31600,9.46228,-0.07509
39.41600,9.46228,-0.07497
39.51600,9.46228,-0.07490
39.61600,9.46228,-0.07479
39.71600,9.46228,-0.07473
39.81600,9.46228,-0.07464
39.91600,9.46228,-0.07452
40.01600,9.46228,-0.07443
40.11600,9.46228,-0.07441
40.21600,9.46228,-0.07427
40.31600,9.46228,-0.07423
40.41600,9.46228,-0.07415
40.51600,9.46228,-0.07405
40.61600,9.46228,-0.07395
40.71600,9.46228,-0.07385
40.81600,9.46228,-0.07378
40.91600,9.46228,-0.07372
41.01600,9.46228,-0.07362
41.11600,9.46228,-0.07351
41.21600,9.46228,-0.07349
41.31600,9.46228,-0.07338
41.41600,9.46228,-0.07328
41.51600,9.46228,-0.07321
41.61600,9.46228,-0.07311
41.71600,9.46228,-0.07304
41.81600,9.46228,-0.07299
41.91600,9.46228,-0.07289
42.01600,9.46228,-0.07283
42.11600,9.46228,-0.07274
42.21600,9.46228,-0.07266
42.31600,9.46228,-0.07261
42.41600,9.46228,-0.07249
42.51600,9.46228,-0.07244
42.61600,9.46228,-0.07236
42.71600,9.46228,-0.07226
42.81600,9.46228,-0.07219
42.91600,9.46228,-0.07213
43.01600,9.46228,-0.07209
43.11600,9.46228,-0.07193
43.21600,9.46228,-0.07190
43.31600,9.46228,-0.07181
43.41600,9.46228,-0.07171
43.51600,9.46228,-0.07167
43.61600,9.46228,-0.07157
43.71600,9.46228,-0.07151
43.81600,9.46228,-0.07143
43.91600,9.46228,-0.07138
44.01600,9.46228,-0.07130
44.11600,9.46228,-0.07122
44.21600,9.46228,-0.07113
44.31600,9.46228,-0.07111
44.41600,9.46228,-0.07098
44.51600,9.46228,-0.07093
44.61600,9.46228,-0.07084
44.71600,9.46228,-0.07077
44.81600,9.46228,-0.07074
44.91600,9.46228,-0.07064
45.01600,9.46228,-0.07054
45.11600,9.46228,-0.07054
45.21600,9.46228,-0.07039
45.31600,9.46228,-0.07030
45.41600,9.46228,-0.07027
45.51600,9.46228,-0.07021
45.61600,9.46228,-0.07014
45.71600,9.46228,-0.07003
45.81600,9.46228,-0.06998
45.91600,9.46228,-0.06987
46.01600,9.46228,-0.06984
46.11600,9.46228,-0.06975
46.21600,9.46228,-0.06971
46.31600,9.46228,-0.06962
46.41600,9.46228,-0.06954
46.51600,9.46228,-0.06946
46.61600,9.46228,-0.06939
46.71600,9.46228,-0.06934
46.81600,9.46228,-0.06930
46.91600,9.46228,-0.06921
47.01600,9.46228,-0.06915
47.11600,9.46228,-0.06910
47.21600,9.46228,-0.06903
47.31600,9.46228,-0.06892
47.41600,9.46228,-0.06887
47.51600,9.46228,-0.06882
47.61600,9.46228,-0.06875
47.71600,9.46228,-0.06867
47.81600,9.46228,-0.06861
47.91600,9.46228,-0.06851
48.01600,9.46228,-0.06846
48.11600,9.46228,-0.06841
48.21600,9.46228,-0.06832
48.31600,9.46228,-0.06823
48.41600,9.46228,-0.06815
48.51600,9.46228,-0.06811
48.61600,9.46228,-0.06801
48.71600,9.46228,-0.06795
48.81600,9.46228,-0.06790
48.91600,9.46228,-0.06787
49.01600,9.46228,-0.06777
49.11600,9.46228,-0.06770
49.21600,9.46228,-0.06765
49.31600,9.46228,-0.06759
49.41600,9.46228,-0.06749
49.51600,9.46228,-0.06744
49.61600,9.46228,-0.06737
49.71600,9.46228,-0.06733
49.81600,9.46228,-0.06721
49.91600,9.46228,-0.06718
50.01600,9.46228,-0.06710
50.11600,9.46228,-0.06700
50.21600,9.46228,-0.06698
50.31600,9.46228,-0.06689
50.41600,9.46228,-0.06686
50.51600,9.46228,-0.06678
50.61600,9.46228,-0.06672
50.71600,9.46228,-0.06666
50.81600,9.46228,-0.06658
50.91600,9.46228,-0.06654
51.01600,9.46228,-0.06647
51.11600,9.46228,-0.06643
51.21600,9.46228,-0.06636
51.31600,9.46228,-0.06627
51.41600,9.46228,-0.06623
51.51600,9.46228,-0.06618
51.61600,9.46228,-0.06609
51.71600,9.46228,-0.06602
51.81600,9.46228,-0.06601
51.91600,9.46228,-0.06592
52.01600,9.46228,-0.06586
52.11600,9.46228,-0.06578
52.21600,9.46228,-0.06572
52.31600,9.46228,-0.06564
52.41600,9.46228,-0.06561
52.51600,9.46228,-0.06554
52.61600,9.46228,-0.06547
52.71600,9.46228,-0.06543
52.81600,9.46228,-0.06539
52.91600,9.46228,-0.06529
53.01600,9.46228,-0.06527
53.11600,9.46228,-0.06520
53.21600,9.46228,-0.06516
53.31600,9.46228,-0.06510
53.41600,9.46228,-0.06503
53.51600,9.46228,-0.06497
53.61600,9.46228,-0.06494
53.71600,9.46228,-0.06482
53.81600,9.46228,-0.06480
53.91600,9.46228,-0.06473
54.01600,9.46228,-0.06470
54.11600,9.46228,-0.06463
54.21600,9.46228,-0.06459
54.31600,9.46228,-0.06456
54.41600,9.46228,-0.06449
54.51600,9.46228,-0.06444
54.61600,9.46228,-0.06437
54.71600,9.46228,-0.06432
54.81600,9.46228,-0.06428
54.91600,9.46228,-0.06420
55.01600,9.46228,-0.06412
55.11600,9.46228,-0.06411
55.21600,9.46228,-0.06407
55.31600,9.46228,-0.06395
55.41600,9.46228,-0.06391
55.51600,9.46228,-0.06386
55.61600,9.46228,-0.06383
55.71600,9.46228,-0.06373
55.81600,9.46228,-0.06370
55.91600,9.46228,-0.06366
56.01600,9.46228,-0.06357
56.11600,9.46228,-0.06352
56.21600,9.46228,-0.06351
56.31600,9.46228,-0.06342
56.41600,9.46228,-0.06338
56.51600,9.46228,-0.06332
56.61600,9.46228,-0.06323
56.71600,9.46228,-0.06320
56.81600,9.46228,-0.06317
56.91600,9.46228,-0.06314
57.01600,9.46228,-0.06306
57.11600,9.46228,-0.06302
57.21600,9.46228,-0.06294
57.31600,9.46228,-0.06286
57.41600,9.46228,-0.06285
57.51600,9.46228,-0.06282
57.61600,9.46228,-0.06275
57.71600,9.46228,-0.06268
57.81600,9.46228,-0.06267
57.91600,9.46228,-0.06258
58.01600,9.46228,-0.06252
58.11600,9.46228,-0.06248
58.21600,9.46228,-0.06246
58.31600,9.46228,-0.06240
58.41600,9.46228,-0.06235
58.51600,9.46228,-0.06232
58.61600,9.46228,-0.06222
58.71600,9.46228,-0.06219
58.81600,9.46228,-0.06213
58.91600,9.46228,-0.06209
59.01600,9.46228,-0.06204
59.11600,9.46228,-0.06198
59.21600,9.46228,-0.06192
59.31600,9.46228,-0.06183
59.41600,9.46228,-0.06183
59.51600,9.46228,-0.06176
59.61600,9.46228,-0.06170
59.71600,9.46228,-0.06170
59.81600,9.46228,-0.06160
59.91600,9.46228,-0.06159
60.01600,9.46228,-0.06149
60.11600,9.46228,-0.06144
60.21600,9.46228,-0.06144
60.31600,9.46228,-0.06138
60.41600,9.46228,-0.06131
60.51600,9.46228,-0.06128
60.61600,9.46228,-0.06123
60.71600,9.46228,-0.06117
60.81600,9.46228,-0.06111
60.91600,9.46228,-0.06107
61.01600,9.46228,-0.06102
61.11600,9.46228,-0.06099
61.21600,9.46228,-0.06097
61.31600,9.46228,-0.06086
61.41600,9.46228,-0.06083
61.51600,9.46228,-0.06078
61.61600,9.46228,-0.06074
61.71600,9.46228,-0.06074
61.81600,9.46228,-0.06069
61.91600,9.46228,-0.06061
62.01600,9.46228,-0.06056
62.11600,9.46228,-0.06052
62.21600,9.46228,-0.06045
62.31600,9.46228,-0.06045
62.41600,9.46228,-0.06043
62.51600,9.46228,-0.06033
62.61600,9.46228,-0.06030
62.71600,9.46228,-0.06025
62.81600,9.46228,-0.06022
62.91600,9.46228,-0.06016
63.01600,9.46228,-0.06010
63.11600,9.46228,-0.06007
63.21600,9.46228,-0.06000
63.31600,9.46228,-0.05998
63.41600,9.46228,-0.05993
63.51600,9.46228,-0.05988
63.61600,9.46228,-0.05982
63.71600,9.46228,-0.05978
63.81600,9.46228,-0.05975
63.91600,9.46228,-0.05966
64.01600,9.46228,-0.05963
64.11600,9.46228,-0.05958
64.21600,9.46228,-0.05955
64.31600,9.46228,-0.05949
64.41600,9.46228,-0.05947
64.51600,9.46228,-0.05941
64.61600,9.46228,-0.05939
64.71600,9.46228,-0.05932
64.81600,9.46228,-0.05927
64.91600,9.46228,-0.05925
65.01600,9.46228,-0.05916
65.11600,9.46228,-0.05916
65.21600,9.46228,-0.05909
65.31600,9.46228,-0.05901
65.41600,9.46228,-0.05902
65.51600,9.46228,-0.05896
65.61600,9.46228,-0.05888
65.71600,9.46228,-0.05888
65.81600,9.46228,-0.05884
65.91600,9.46228,-0.05881
66.01600,9.46228,-0.05870
66.11600,9.46228,-0.05869
66.21600,9.46228,-0.05865
66.31600,9.46228,-0.05862
66.41600,9.46228,-0.05859
66.51600,9.46228,-0.05854
66.61600,9.46228,-0.05844
66.71600,9.46228,-0.05842
66.81600,9.46228,-0.05841
66.91600,9.46228,-0.05836
67.01600,9.46228,-0.05833
67.11600,9.46228,-0.05829
67.21600,9.46228,-0.05821
67.31600,9.46228,-0.05817
67.41600,9.46228,-0.05813
67.51600,9.46228,-0.05811
67.61600,9.46228,-0.05803
67.71600,9.46228,-0.05802
67.81600,9.46228,-0.05796
67.91600,9.46228,-0.05792
68.01600,9.46228,-0.05787
68.11600,9.46228,-0.05784
68.21600,9.46228,-0.05775
68.31600,9.46228,-0.05771
68.41600,9.46228,-0.05771
68.51600,9.46228,-0.05767
68.61600,9.46228,-0.05761
68.71600,9.46228,-0.05758
68.81600,9.46228,-0.05752
68.91600,9.46228,-0.05749
69.01600,9.46228,-0.05746
69.11600,9.46228,-0.05740
69.21600,9.46228,-0.05738
69.31600,9.46228,-0.05731
69.41600,9.46228,-0.05730
69.51600,9.46228,-0.05726
69.61600,9.46228,-0.05720
69.71600,9.46228,-0.05717
69.81600,9.46228,-0.05715
69.91600,9.46228,-0.05710
70.01600,9.46228,-0.05704
70.11600,9.46228,-0.05695
70.21600,9.46228,-0.05696
70.31600,9.46228,-0.05691
70.41600,9.46228,-0.05692
70.51600,9.46228,-0.05688
70.61600,9.46228,-0.05682
70.71600,9.46228,-0.05676
70.81600,9.46228,-0.05672
70.91600,9.46228,-0.05670
71.01600,9.46228,-0.05666
71.11600,9.46228,-0.05666
71.21600,9.46228,-0.05659
71.31600,9.46228,-0.05653
71.41600,9.46228,-0.05651
71.51600,9.46228,-0.05649
71.61600,9.46228,-0.05645
71.71600,9.46228,-0.05642
71.81600,9.46228,-0.05640
71.91600,9.46228,-0.05635
72.01600,9.46228,-0.05626
72.11600,9.46228,-0.05627
72.21600,9.46228,-0.05621
72.31600,9.46228,-0.05618
72.41600,9.46228,-0.05616
72.51600,9.46228,-0.05608
72.61600,9.46228,-0.05604
72.71600,9.46228,-0.05600
72.81600,9.46228,-0.05597
72.91600,9.46228,-0.05594
73.01600,9.46228,-0.05586
73.11600,9.46228,-0.05585
73.21600,9.46228,-0.05583
73.31600,9.46228,-0.05577
73.41600,9.46228,-0.05574
73.51600,9.46228,-0.05570
73.61600,9.46228,-0.05567
73.71600,9.46228,-0.05563
73.81600,9.46228,-0.05559
73.91600,9.46228,-0.05556
74.01600,9.46228,-0.05551
74.11600,9.46228,-0.05548
74.21600,9.46228,-0.05546
74.31600,9.46228,-0.05540
74.41600,9.46228,-0.05539
74.51600,9.46228,-0.05533
74.61600,9.46228,-0.05528
74.71600,9.46228,-0.05525
74.81600,9.46228,-0.05520
74.91600,9.46228,-0.05517
75.01600,9.46228,-0.05512
75.11600,9.46228,-0.05509
75.21600,9.46228,-0.05506
75.31600,9.46228,-0.05504
75.41600,9.46228,-0.05501
75.51600,9.46228,-0.05494
75.61600,9.46228,-0.05493
75.71600,9.46228,-0.05491
75.81600,9.46228,-0.05485
75.91600,9.46228,-0.05482
76.01600,9.46228,-0.05478
76.11600,9.46228,-0.05474
76.21600,9.46228,-0.05472
76.31600,9.46228,-0.05469
76.41600,9.46228,-0.05460
76.51600,9.46228,-0.05461
76.61600,9.46228,-0.05458
76.71600,9.46228,-0.05455
76.81600,9.46228,-0.05450
76.91600,9.46228,-0.05448
77.01600,9.46228,-0.05443
77.11600,9.46228,-0.05440
77.21600,9.46228,-0.05438
77.31600,9.46228,-0.05433
77.41600,9.46228,-0.05428
77.51600,9.46228,-0.05424
77.61600,9.46228,-0.05422
77.71600,9.46228,-0.05419
77.81600,9.46228,-0.05412
77.91600,9.46228,-0.05412
78.01600,9.46228,-0.05404
78.11600,9.46228,-0.05405
78.21600,9.46228,-0.05401
78.31600,9.46228,-0.05396
78.41600,9.46228,-0.05392
78.51600,9.46228,-0.05392
78.61600,9.46228,-0.05387
78.71600,9.46228,-0.05380
78.81600,9.46228,-0.05374
78.91600,9.46228,-0.05376
79.01600,9.46228,-0.05371
79.11600,9.46228,-0.05369
79.21600,9.46228,-0.05366
79.31600,9.46228,-0.05359
79.41600,9.46228,-0.05358
79.51600,9.46228,-0.05349
79.61600,9.46228,-0.05352
79.71600,9.46228,-0.05350
79.81600,9.46228,-0.05345
79.91600,9.46228,-0.05342
80.01600,9.46228,-0.05338
80.11600,9.46228,-0.05332
80.21600,9.46228,-0.05328
80.31600,9.46228,-0.05329
80.41600,9.46228,-0.05325
80.51600,9.46228,-0.05322
80.61600,9.46228,-0.05323
80.71600,9.46228,-0.05313
80.81600,9.46228,-0.05311
80.91600,9.46228,-0.05311
81.01600,9.46228,-0.05304
81.11600,9.46228,-0.05306
81.21600,9.46228,-0.05296
81.31600,9.46228,-0.05300
81.41600,9.46228,-0.05292
81.51600,9.46228,-0.05289
81.61600,9.46228,-0.05286
81.71600,9.46228,-0.05283
81.81600,9.46228,-0.05280
81.91600,9.46228,-0.05279
82.01600,9.46228,-0.05269
82.11600,9.46228,-0.05267
82.21600,9.46228,-0.05268
82.31600,9.46228,-0.05268
82.41600,9.46228,-0.05261
82.51600,9.46228,-0.05257
82.61600,9.46228,-0.05253
82.71600,9.46228,-0.05251
82.81600,9.46228,-0.05246
82.91600,9.46228,-0.05241
83.01600,9.46228,-0.05238
83.11600,9.46228,-0.05236
83.21600,9.46228,-0.05235
83.31600,9.46228,-0.05233
83.41600,9.46228,-0.05228
83.51600,9.46228,-0.05223
83.61600,9.46228,-0.05222
83.71600,9.46228,-0.05219
83.81600,9.46228,-0.05214
83.91600,9.46228,-0.05213
84.01600,9.46228,-0.05208
84.11600,9.46228,-0.05206
84.21600,9.46228,-0.05205
84.31600,9.46228,-0.05200
84.41600,9.46228,-0.05198
84.51600,9.46228,-0.05194
84.61600,9.46228,-0.05192
84.71600,9.46228,-0.05187
84.81600,9.46228,-0.05184
84.91600,9.46228,-0.05181
85.01600,9.46228,-0.05180
85.11600,9.46228,-0.05178
85.21600,9.46228,-0.05167
85.31600,9.46228,-0.05169
85.41600,9.46228,-0.05163
85.51600,9.46228,-0.05165
85.61600,9.46228,-0.05161
85.71600,9.46228,-0.05159
85.81600,9.46228,-0.05157
85.91600,9.46228,-0.05152
86.01600,9.46228,-0.05150
86.11600,9.46228,-0.05146
86.21600,9.46228,-0.05143
86.31600,9.46228,-0.05142
86.41600,9.46228,-0.05143
86.51600,9.46228,-0.05137
86.61600,9.46228,-0.05128
86.71600,9.46228,-0.05129
86.81600,9.46228,-0.05128
86.91600,9.46228,-0.05126
87.01600,9.46228,-0.05126
87.11600,9.46228,-0.05122
87.21600,9.46228,-0.05118
87.31600,9.46228,-0.05114
87.41600,9.46228,-0.05112
87.51600,9.46228,-0.05109
87.61600,9.46228,-0.05110
87.71600,9.46228,-0.05110
87.81600,9.46228,-0.05104
87.91600,9.46228,-0.05098
88.01600,9.46228,-0.05096
88.11600,9.46228,-0.05095
88.21600,9.46228,-0.05091
88.31600,9.46228,-0.05089
88.41600,9.46228,-0.05086
88.51600,9.46228,-0.05082
88.61600,9.46228,-0.05083
88.71600,9.46228,-0.05078
88.81600,9.46228,-0.05073
88.91600,9.46228,-0.05076
89.01600,9.46228,-0.05070
89.11600,9.46228,-0.05064
89.21600,9.46228,-0.05063
89.31600,9.46228,-0.05063
89.41600,9.46228,-0.05056
89.51600,9.46228,-0.05054
89.61600,9.46228,-0.05052
89.71600,9.46228,-0.05051
89.81600,9.46228,-0.05049
89.91600,9.46228,-0.05046
90.01600,9.46228,-0.05037
90.11600,9.46228,-0.05038
90.21600,9.46228,-0.05037
90.31600,9.46228,-0.05035
90.41600,9.46228,-0.05031
90.51600,9.46228,-0.05028
90.61600,9.46228,-0.05029
90.71600,9.46228,-0.05021
90.81600,9.46228,-0.05019
90.91600,9.46228,-0.05016
91.01600,9.46228,-0.05013
91.11600,9.46228,-0.05013
91.21600,9.46228,-0.05008
91.31600,9.46228,-0.05007
91.41600,9.46228,-0.05003
91.51600,9.46228,-0.04996
91.61600,9.46228,-0.04998
91.71600,9.46228,-0.04991
91.81600,9.46228,-0.04990
91.91600,9.46228,-0.04988
92.01600,9.46228,-0.04984
92.11600,9.46228,-0.04978
92.21600,9.46228,-0.04977
92.31600,9.46228,-0.04977
92.41600,9.46228,-0.04974
92.51600,9.46228,-0.04973
92.61600,9.46228,-0.04968
92.71600,9.46228,-0.04968
92.81600,9.46228,-0.04965
92.91600,9.46228,-0.04965
93.01600,9.46228,-0.04960
93.11600,9.46228,-0.04961
93.21600,9.46228,-0.04957
93.31600,9.46228,-0.04956
93.41600,9.46228,-0.04953
93.51600,9.46228,-0.04948
93.61600,9.46228,-0.04948
93.71600,9.46228,-0.04942
93.81600,9.46228,-0.04945
93.91600,9.46228,-0.04942
94.01600,9.46228,-0.04940
94.11600,9.46228,-0.04937
94.21600,9.46228,-0.04935
94.31600,9.46228,-0.04932
94.41600,9.46228,-0.04930
94.51600,9.46228,-0.04928
94.61600,9.46228,-0.04926
94.71600,9.46228,-0.04923
94.81600,9.46228,-0.04920
94.91600,9.46228,-0.04921
95.01600,9.46228,-0.04916
95.11600,9.46228,-0.04915
95.21600,9.46228,-0.04912
95.31600,9.46228,-0.04905
95.41600,9.46228,-0.04905
95.51600,9.46228,-0.04903
95.61600,9.46228,-0.04900
95.71600,9.46228,-0.04897
95.81600,9.46228,-0.04895
95.91600,9.46228,-0.04893
96.01600,9.46228,-0.04891
96.11600,9.46228,-0.04886
96.21600,9.46228,-0.04885
96.31600,9.46228,-0.04882
96.41600,9.46228,-0.04880
96.51600,9.46228,-0.04876
96.61600,9.46228,-0.04875
96.71600,9.46228,-0.04874
96.81600,9.46228,-0.04871
96.91600,9.46228,-0.04869
97.01600,9.46228,-0.04865
97.11600,9.46228,-0.04868
97.21600,9.46228,-0.04858
97.31600,9.46228,-0.04857
97.41600,9.46228,-0.04851
97.51600,9.46228,-0.04853
97.61600,9.46228,-0.04851
97.71600,9.46228,-0.04847
97.81600,9.46228,-0.04847
97.91600,9.46228,-0.04842
98.01600,9.46228,-0.04841
98.11600,9.46228,-0.04838
98.21600,9.46228,-0.04839
98.31600,9.46228,-0.04837
98.41600,9.46228,-0.04831
98.51600,9.46228,-0.04830
98.61600,9.46228,-0.04829
98.71600,9.46228,-0.04826
98.81600,9.46228,-0.04825
98.91600,9.46228,-0.04820
99.01600,9.46228,-0.04818
99.11600,9.46228,-0.04815
99.21600,9.46228,-0.04814
99.31600,9.46228,-0.04811
99.41600,9.46228,-0.04808
99.51600,9.46228,-0.04810
99.61600,9.46228,-0.04805
99.71600,9.46228,-0.04805
99.81600,9.46228,-0.04804
99.91600,9.46228,-0.04799
100.01600,9.46228,-0.04795
100.11600,9.46228,-0.04799
100.21600,9.46228,-0.04794
100.31600,9.46228,-0.04794
100.41600,9.46228,-0.04795
100.51600,9.46228,-0.04787
100.61600,9.46228,-0.04788
100.71600,9.46228,-0.04785
100.81600,9.46228,-0.04781
100.91600,9.46228,-0.04779
101.01600,9.46228,-0.04779
101.11600,9.46228,-0.04778
101.21600,9.46228,-0.04774
101.31600,9.46228,-0.04767
101.41600,9.46228,-0.04766
101.51600,9.46228,-0.04768
101.61600,9.46228,-0.04766
101.71600,9.46228,-0.04761
101.81600,9.46228,-0.04759
101.91600,9.46228,-0.04759
102.01600,9.46228,-0.04754
102.11600,9.46228,-0.04753
102.21600,9.46228,-0.04753
102.31600,9.46228,-0.04750
102.41600,9.46228,-0.04748
102.51600,9.46228,-0.04747
102.61600,9.46228,-0.04740
102.71600,9.46228,-0.04739
102.81600,9.46228,-0.04734
102.91600,9.46228,-0.04736
103.01600,9.46228,-0.04731
103.11600,9.46228,-0.04731
103.21600,9.46228,-0.04726
103.31600,9.46228,-0.04730
103.41600,9.46228,-0.04726
103.51600,9.46228,-0.04721
103.61600,9.46228,-0.04719
103.71600,9.46228,-0.04719
103.81600,9.46228,-0.04713
103.91600,9.46228,-0.04712
104.01600,9.46228,-0.04710
104.11600,9.46228,-0.04708
104.21600,9.46228,-0.04701
104.31600,9.46228,-0.04705
104.41600,9.46228,-0.04700
104.51600,9.46228,-0.04693
104.61600,9.46228,-0.04696
104.71600,9.46228,-0.04693
104.81600,9.46228,-0.04693
104.91600,9.46228,-0.04689
105.01600,9.46228,-0.04688
105.11600,9.46228,-0.04683
105.21600,9.46228,-0.04683
105.31601,9.46228,-0.04679
105.41601,9.46228,-0.04677
105.51601,9.46228,-0.04672
105.61601,9.46228,-0.04671
105.71601,9.46228,-0.04671
105.81601,9.46228,-0.04670
105.91601,9.46228,-0.04669
106.01601,9.46228,-0.04664
106.11601,9.46228,-0.04661
106.21601,9.46228,-0.04660
106.31601,9.46228,-0.04658
106.41601,9.46228,-0.04658
106.51601,9.46228,-0.04655
106.61601,9.46228,-0.04652
106.71601,9.46228,-0.04647
106.81601,9.46228,-0.04645
106.91601,9.46228,-0.04640
107.01601,9.46228,-0.04641
107.11601,9.46228,-0.04640
107.21601,9.46228,-0.04638
107.31601,9.46228,-0.04637
107.41601,9.46228,-0.04631
107.51601,9.46228,-0.04631
107.61601,9.46228,-0.04627
107.71601,9.46228,-0.04627
107.81601,9.46228,-0.04625
107.91601,9.46228,-0.04622
108.01601,9.46228,-0.04622
108.11601,9.46228,-0.04618
108.21601,9.46228,-0.04611
108.31601,9.46228,-0.04615
108.41601,9.46228,-0.04613
108.51601,9.46228,-0.04610
108.61601,9.46228,-0.04611
108.71601,9.46228,-0.04607
108.81601,9.46228,-0.04603
108.91601,9.46228,-0.04598
109.01601,9.46228,-0.04602
109.11601,9.46228,-0.04597
109.21601,9.46228,-0.04595
109.31601,9.46228,-0.04594
109.41601,9.46228,-0.04588
109.51601,9.46228,-0.04587
109.61601,9.46228,-0.04587
109.71601,9.46228,-0.04584
109.81601,9.46228,-0.04580
109.91601,9.46228,-0.04581
110.01601,9.46228,-0.04578
110.11601,9.46228,-0.04576
110.21601,9.46228,-0.04572
110.31601,9.46228,-0.04570
110.41601,9.46228,-0.04570
110.51601,9.46228,-0.04568
110.61601,9.46228,-0.04567
110.71601,9.46228,-0.04563
110.81601,9.46228,-0.04560
110.91601,9.46228,-0.04557
111.01601,9.46228,-0.04558
111.11601,9.46228,-0.04556
111.21601,9.46228,-0.04552
111.31601,9.46228,-0.04554
111.41601,9.46228,-0.04550
111.51601,9.46228,-0.04549
111.61601,9.46228,-0.04546
111.71601,9.46228,-0.04545
111.81601,9.46228,-0.04548
111.91601,9.46228,-0.04544
112.01601,9.46228,-0.04540
112.11601,9.46228,-0.04535
112.21601,9.46228,-0.04534
112.31601,9.46228,-0.04533
112.41601,9.46228,-0.04532
112.51601,9.46228,-0.04530
112.61601,9.46228,-0.04526
112.71601,9.46228,-0.04524
112.81601,9.46228,-0.04523
112.91601,9.46228,-0.04524
113.01601,9.46228,-0.04522
113.11601,9.46228,-0.04519
113.21601,9.46228,-0.04515
113.31601,9.46228,-0.04514
113.41601,9.46228,-0.04513
113.51601,9.46228,-0.04508
113.61601,9.46228,-0.04505
113.71601,9.46228,-0.04506
113.81601,9.46228,-0.04507
113.91601,9.46228,-0.04503
114.01601,9.46228,-0.04496
114.11601,9.46228,-0.04498
114.21601,9.46228,-0.04495
114.31601,9.46228,-0.04494
114.41601,9.46228,-0.04493
114.51601,9.46228,-0.04490
114.61601,9.46228,-0.04486
114.71601,9.46228,-0.04487
114.81601,9.46228,-0.04482
114.91601,9.46228,-0.04484
115.01601,9.46228,-0.04481
115.11601,9.46228,-0.04481
115.21601,9.46228,-0.04482
115.31601,9.46228,-0.04478
115.41601,9.46228,-0.04472
115.51601,9.46228,-0.04473
115.61601,9.46228,-0.04472
115.71601,9.46228,-0.04470
115.81601,9.46228,-0.04467
115.91601,9.46228,-0.04470
116.01601,9.46228,-0.04466
116.11601,9.46228,-0.04465
116.21601,9.46228,-0.04464
116.31601,9.46228,-0.04461
116.41601,9.46228,-0.04459
116.51601,9.46228,-0.04453
116.61601,9.46228,-0.04456
116.71601,9.46228,-0.04456
116.81601,9.46228,-0.04451
116.91601,9.46228,-0.04450
117.01601,9.46228,-0.04446
117.11601,9.46228,-0.04445
117.21601,9.46228,-0.04447
117.31601,9.46228,-0.04443
117.41601,9.46228,-0.04442
117.51601,9.46228,-0.04438
117.61601,9.46228,-0.04435
117.71601,9.46228,-0.04437
117.81601,9.46228,-0.04434
117.91601,9.46228,-0.04436
118.01601,9.46228,-0.04431
118.11601,9.46228,-0.04429
118.21601,9.46228,-0.04431
118.31601,9.46228,-0.04426
118.41601,9.46228,-0.04424
118.51601,9.46228,-0.04420
118.61601,9.46228,-0.04423
118.71601,9.46228,-0.04423
118.81601,9.46228,-0.04418
118.91601,9.46228,-0.04417
119.01601,9.46228,-0.04413
119.11601,9.46228,-0.04416
119.21601,9.46228,-0.04412
119.31601,9.46228,-0.04415
119.41601,9.46228,-0.04409
119.51601,9.46228,-0.04412
119.61601,9.46228,-0.04408
119.71601,9.46228,-0.04402
119.81601,9.46228,-0.04407
119.91601,9.46228,-0.04403
120.01601,9.46228,-0.04401
120.11601,9.46228,-0.04400
120.21601,9.46228,-0.04398
120.31601,9.46228,-0.04397
120.41601,9.46228,-0.04392
120.51601,9.46228,-0.04395
120.61601,9.46228,-0.04391
120.71601,9.46228,-0.04388
120.81601,9.46228,-0.04385
120.91601,9.46228,-0.04387
121.01601,9.46228,-0.04382
121.11601,9.46228,-0.04382
121.21601,9.46228,-0.04380
121.31601,9.46228,-0.04378
121.41601,9.46228,-0.04377
121.51601,9.46228,-0.04377
121.61601,9.46228,-0.04372
121.71601,9.46228,-0.04374
121.81601,9.46228,-0.04371
121.91601,9.46228,-0.04369
122.01601,9.46228,-0.04367
122.11601,9.46228,-0.04364
122.21601,9.46228,-0.04367
122.31601,9.46228,-0.04363
122.41601,9.46228,-0.04362
122.51601,9.46228,-0.04363
122.61601,9.46228,-0.04359
122.71601,9.46228,-0.04355
122.81601,9.46228,-0.04354
122.91601,9.46228,-0.04354
123.01601,9.46228,-0.04354
123.11601,9.46228,-0.04354
123.21601,9.46228,-0.04351
123.31601,9.46228,-0.04348
123.41601,9.46228,-0.04346
123.51601,9.46228,-0.04345
123.61601,9.46228,-0.04340
123.71601,9.46228,-0.04345
123.81601,9.46228,-0.04343
123.91601,9.46228,-0.04341
124.01601,9.46228,-0.04339
124.11601,9.46228,-0.04337
124.21601,9.46228,-0.04336
124.31601,9.46228,-0.04336
124.41601,9.46228,-0.04335
124.51601,9.46228,-0.04330
124.61601,9.46228,-0.04332
124.71601,9.46228,-0.04332
124.81601,9.46228,-0.04328
124.91601,9.46228,-0.04325
125.01601,9.46228,-0.04328
125.11601,9.46228,-0.04324
125.21601,9.46228,-0.04324
125.31601,9.46228,-0.04324
125.41601,9.46228,-0.04321
125.51601,9.46228,-0.04322
125.61601,9.46228,-0.04320
125.71601,9.46228,-0.04313
125.81601,9.46228,-0.04316
125.91601,9.46228,-0.04315
126.01601,9.46228,-0.04311
126.11601,9.46228,-0.04309
126.21601,9.46228,-0.04308
126.31601,9.46228,-0.04305
126.41601,9.46228,-0.04302
126.51601,9.46228,-0.04303
126.61601,9.46228,-0.04300
126.71601,9.46228,-0.04295
126.81601,9.46228,-0.04295
126.91601,9.46228,-0.04291
127.01601,9.46228,-0.04289
127.11601,9.46228,-0.04290
127.21601,9.46228,-0.04286
127.31601,9.46228,-0.04284
127.41601,9.46228,-0.04283
127.51601,9.46228,-0.04280
127.61601,9.46228,-0.04281
127.71601,9.46228,-0.04281
127.81601,9.46228,-0.04281
127.91601,9.46228,-0.04276
128.01601,9.46228,-0.04273
128.11601,9.46228,-0.04273
128.21601,9.46228,-0.04271
128.31601,9.46228,-0.04269
128.41601,9.46228,-0.04270
128.51601,9.46228,-0.04265
128.61601,9.46228,-0.04264
128.71601,9.46228,-0.04260
128.81601,9.46228,-0.04262
128.91601,9.46228,-0.04264
129.01601,9.46228,-0.04258
129.11601,9.46228,-0.04257
129.21601,9.46228,-0.04252
129.31601,9.46228,-0.04254
129.41601,9.46228,-0.04256
129.51601,9.46228,-0.04250
129.61601,9.46228,-0.04251
129.71601,9.46228,-0.04249
129.81601,9.46228,-0.04250
129.91601,9.46228,-0.04246
130.01601,9.46228,-0.04245
130.11601,9.46228,-0.04237
130.21601,9.46228,-0.04239
130.31601,9.46228,-0.04237
130.41601,9.46228,-0.04233
130.51601,9.46228,-0.04234
130.61601,9.46228,-0.04233
130.71601,9.46228,-0.04230
130.81601,9.46228,-0.04231
130.91601,9.46228,-0.04226
131.01601,9.46228,-0.04228
131.11601,9.46228,-0.04222
131.21601,9.46228,-0.04222
131.31601,9.46228,-0.04220
131.41601,9.46228,-0.04217
131.51601,9.46228,-0.04213
131.61601,9.46228,-0.04214
131.71601,9.46228,-0.04213
131.81601,9.46228,-0.04212
131.91601,9.46228,-0.04207
132.01601,9.46228,-0.04207
132.11601,9.46228,-0.04203
132.21601,9.46228,-0.04205
132.31601,9.46228,-0.04199
132.41601,9.46228,-0.04196
132.51601,9.46228,-0.04199
132.61601,9.46228,-0.04194
132.71601,9.46228,-0.04193
132.81601,9.46228,-0.04188
132.91601,9.46228,-0.04191
133.01601,9.46228,-0.04186
133.11601,9.46228,-0.04186
133.21601,9.46228,-0.04186
133.31601,9.46228,-0.04183
133.41601,9.46228,-0.04181
133.51601,9.46228,-0.04180
133.61601,9.46228,-0.04180
133.71601,9.46228,-0.04184
133.81601,9.46228,-0.04180
133.91601,9.46228,-0.04176
134.01601,9.46228,-0.04178
134.11601,9.46228,-0.04176
134.21601,9.46228,-0.04171
134.31601,9.46228,-0.04170
134.41601,9.46228,-0.04175
134.51601,9.46228,-0.04172
134.61601,9.46228,-0.04171
134.71601,9.46228,-0.04164
134.81601,9.46228,-0.04165
134.91601,9.46228,-0.04167
135.01601,9.46228,-0.04162
135.11601,9.46228,-0.04163
135.21601,9.46228,-0.04160
135.31601,9.46228,-0.04158
135.41601,9.46228,-0.04155
135.51601,9.46228,-0.04153
135.61601,9.46228,-0.04149
135.71601,9.46228,-0.04150
135.81601,9.46228,-0.04151
135.91601,9.46228,-0.04149
136.01601,9.46228,-0.04146
136.11601,9.46228,-0.04144
136.21601,9.46228,-0.04141
136.31601,9.46228,-0.04139
136.41601,9.46228,-0.04140
136.51601,9.46228,-0.04137
136.61601,9.46228,-0.04135
136.71601,9.46228,-0.04133
136.81601,9.46228,-0.04131
136.91601,9.46228,-0.04131
137.01601,9.46228,-0.04129
137.11601,9.46228,-0.04129
137.21601,9.46228,-0.04125
137.31601,9.46228,-0.04125
137.41601,9.46228,-0.04123
137.51601,9.46228,-0.04125
137.61601,9.46228,-0.04121
137.71601,9.46228,-0.04119
137.81601,9.46228,-0.04118
137.91601,9.46228,-0.04116
138.01601,9.46228,-0.04116
138.11601,9.46228,-0.04116
138.21601,9.46228,-0.04111
138.31601,9.46228,-0.04110
138.41601,9.46228,-0.04109
138.51601,9.46228,-0.04110
138.61601,9.46228,-0.04110
138.71601,9.46228,-0.04106
138.81601,9.46228,-0.04108
138.91601,9.46228,-0.04105
139.01601,9.46228,-0.04103
139.11601,9.46228,-0.04103
139.21601,9.46228,-0.04103
139.31601,9.46228,-0.04103
139.41601,9.46228,-0.04100
139.51601,9.46228,-0.04102
139.61601,9.46228,-0.04095
139.71601,9.46228,-0.04097
139.81601,9.46228,-0.04097
139.91601,9.46228,-0.04096
140.01601,9.46228,-0.04090
140.11601,9.46228,-0.04088
140.21601,9.46228,-0.04085
140.31601,9.46228,-0.04090
140.41601,9.46228,-0.04088
140.51601,9.46228,-0.04085
140.61601,9.46228,-0.04083
140.71601,9.46228,-0.04080
140.81601,9.46228,-0.04082
140.91601,9.46228,-0.04083
141.01601,9.46228,-0.04079
141.11601,9.46228,-0.04077
141.21601,9.46228,-0.04076
141.31601,9.46228,-0.04077
141.41601,9.46228,-0.04074
141.51601,9.46228,-0.04071
141.61601,9.46228,-0.04073
141.71601,9.46228,-0.04071
141.81601,9.46228,-0.04070
141.91601,9.46228,-0.04069
142.01601,9.46228,-0.04062
142.11601,9.46228,-0.04063
142.21601,9.46228,-0.04062
142.31601,9.46228,-0.04057
142.41601,9.46228,-0.04058
142.51601,9.46228,-0.04059
142.61601,9.46228,-0.04056
142.71601,9.46228,-0.04057
142.81601,9.46228,-0.04054
142.91601,9.46228,-0.04045
143.01601,9.46228,-0.04050
143.11601,9.46228,-0.04048
143.21601,9.46228,-0.04048
143.31601,9.46228,-0.04046
143.41601,9.46228,-0.04047
143.51601,9.46228,-0.04036
143.61601,9.46228,-0.04039
143.71601,9.46228,-0.04043
143.81601,9.46228,-0.04036
143.91601,9.46228,-0.04035
144.01601,9.46228,-0.04036
144.11601,9.46228,-0.04036
144.21601,9.46228,-0.04031
144.31601,9.46228,-0.04030
144.41601,9.46228,-0.04028
144.51601,9.46228,-0.04032
144.61601,9.46228,-0.04028
144.71601,9.46228,-0.04028
144.81601,9.46228,-0.04028
144.91601,9.46228,-0.04022
145.01601,9.46228,-0.04024
145.11601,9.46228,-0.04022
145.21601,9.46228,-0.04022
145.31601,9.46228,-0.04020
145.41601,9.46228,-0.04017
145.51601,9.46228,-0.04014
145.61601,9.46228,-0.04012
145.71601,9.46228,-0.04012
145.81601,9.46228,-0.04011
145.91601,9.46228,-0.04007
146.01601,9.46228,-0.04006
146.11601,9.46228,-0.04008
146.21601,9.46228,-0.04004
146.31601,9.46228,-0.04002
146.41601,9.46228,-0.04003
146.51601,9.46228,-0.04003
146.61601,9.46228,-0.04002
146.71601,9.46228,-0.04001
146.81601,9.46228,-0.04000
146.91601,9.46228,-0.03996
147.01601,9.46228,-0.03993
147.11601,9.46228,-0.03989
147.21601,9.46228,-0.03992
147.31601,9.46228,-0.03991
147.41601,9.46228,-0.03990
147.51601,9.46228,-0.03987
147.61601,9.46228,-0.03981
147.71601,9.46228,-0.03985
147.81601,9.46228,-0.03983
147.91601,9.46228,-0.03983
148.01601,9.46228,-0.03978
148.11601,9.46228,-0.03980
148.21601,9.46228,-0.03979
148.31601,9.46228,-0.03976
148.41601,9.46228,-0.03974
148.51601,9.46228,-0.03973
148.61601,9.46228,-0.03970
148.71601,9.46228,-0.03972
148.81601,9.46228,-0.03970
148.91601,9.46228,-0.03965
149.01601,9.46228,-0.03964
149.11601,9.46228,-0.03962
149.21601,9.46228,-0.03965
149.31601,9.46228,-0.03962
149.41601,9.46228,-0.03960
149.51601,9.46228,-0.03956
149.61601,9.46228,-0.03959
149.71601,9.46228,-0.03958
149.81601,9.46228,-0.03954
149.91601,9.46228,-0.03953
150.01601,9.46228,-0.03952
150.11601,9.46228,-0.03951
150.21601,9.46228,-0.03947
150.31601,9.46228,-0.03949
150.41601,9.46228,-0.03945
150.51601,9.46228,-0.03946
150.61601,9.46228,-0.03945
150.71601,9.46228,-0.03945
150.81601,9.46228,-0.03944
150.91601,9.46228,-0.03943
151.01601,9.46228,-0.03938
151.11601,9.46228,-0.03938
151.21601,9.46228,-0.03937
151.31601,9.46228,-0.03936
151.41601,9.46228,-0.03936
151.51601,9.46228,-0.03936
151.61601,9.46228,-0.03930
151.71601,9.46228,-0.03931
151.81601,9.46228,-0.03929
151.91601,9.46228,-0.03930
152.01601,9.46228,-0.03927
152.11601,9.46228,-0.03932
152.21601,9.46228,-0.03926
152.31601,9.46228,-0.03924
152.41601,9.46228,-0.03925
152.51601,9.46228,-0.03921
152.61601,9.46228,-0.03920
152.71601,9.46228,-0.03921
152.81601,9.46228,-0.03919
152.91601,9.46228,-0.03917
153.01601,9.46228,-0.03916
153.11601,9.46228,-0.03913
153.21601,9.46228,-0.03914
153.31601,9.46228,-0.03915
153.41601,9.46228,-0.03910
153.51601,9.46228,-0.03909
153.61601,9.46228,-0.03908
153.71601,9.46228,-0.03909
153.81601,9.46228,-0.03910
153.91601,9.46228,-0.03905
154.01601,9.46228,-0.03905
154.11601,9.46228,-0.03902
154.21601,9.46228,-0.03899
154.31601,9.46228,-0.03897
154.41601,9.46228,-0.03895
154.51601,9.46228,-0.03899
154.61601,9.46228,-0.03898
154.71601,9.46228,-0.03894
154.81601,9.46228,-0.03893
154.91601,9.46228,-0.03896
155.01601,9.46228,-0.03891
155.11601,9.46228,-0.03893
155.21601,9.46228,-0.03890
155.31601,9.46228,-0.03888
155.41601,9.46228,-0.03887
155.51601,9.46228,-0.03890
155.61601,9.46228,-0.03885
155.71601,9.46228,-0.03888
155.81601,9.46228,-0.03883
155.91601,9.46228,-0.03879
156.01601,9.46228,-0.03882
156.11601,9.46228,-0.03880
156.21601,9.46228,-0.03880
156.31601,9.46228,-0.03879
156.41601,9.46228,-0.03876
156.51601,9.46228,-0.03878
156.61601,9.46228,-0.03873
156.71601,9.46228,-0.03870
156.81601,9.46228,-0.03871
156.91601,9.46228,-0.03871
157.01601,9.46228,-0.03868
157.11601,9.46228,-0.03867
157.21601,9.46228,-0.03868
157.31601,9.46228,-0.03864
157.41601,9.46228,-0.03865
157.51601,9.46228,-0.03862
157.61601,9.46228,-0.03859
157.71601,9.46228,-0.03859
157.81601,9.46228,-0.03853
157.91601,9.46228,-0.03859
158.01601,9.46228,-0.03858
158.11601,9.46228,-0.03855
158.21601,9.46228,-0.03854
158.31601,9.46228,-0.03852
158.41601,9.46228,-0.03853
158.51601,9.46228,-0.03849
158.61601,9.46228,-0.03845
158.71601,9.46228,-0.03847
158.81601,9.46228,-0.03849
158.91601,9.46228,-0.03845
159.01601,9.46228,-0.03845
159.11601,9.46228,-0.03843
159.21601,9.46228,-0.03841
159.31601,9.46228,-0.03840
159.41601,9.46228,-0.03842
159.51601,9.46228,-0.03842
159.61601,9.46228,-0.03837
159.71601,9.46228,-0.03837
159.81601,9.46228,-0.03838
159.91601,9.46228,-0.03836
160.01601,9.46228,-0.03834
160.11601,9.46228,-0.03835
160.21601,9.46228,-0.03832
160.31601,9.46228,-0.03830
160.41601,9.46228,-0.03830
160.51601,9.46228,-0.03828
160.61601,9.46228,-0.03830
160.71601,9.46228,-0.03827
160.81601,9.46228,-0.03825
160.91601,9.46228,-0.03827
161.01601,9.46228,-0.03821
161.11601,9.46228,-0.03821
161.21601,9.46228,-0.03823
161.31601,9.46228,-0.03820
161.41601,9.46228,-0.03819
161.51601,9.46228,-0.03821
161.61601,9.46228,-0.03818
161.71601,9.46228,-0.03815
161.81601,9.46228,-0.03814
161.91601,9.46228,-0.03816
162.01601,9.46228,-0.03813
162.11601,9.46228,-0.03810
162.21601,9.46228,-0.03812
162.31601,9.46228,-0.03810
162.41601,9.46228,-0.03807
162.51601,9.46228,-0.03803
162.61601,9.46228,-0.03805
162.71601,9.46228,-0.03806
162.81601,9.46228,-0.03803
162.91601,9.46228,-0.03802
163.01601,9.46228,-0.03802
163.11601,9.46228,-0.03802
163.21601,9.46228,-0.03801
163.31601,9.46228,-0.03800
163.41601,9.46228,-0.03801
163.51601,9.46228,-0.03799
163.61601,9.46228,-0.03796
163.71601,9.46228,-0.03794
163.81601,9.46228,-0.03794
163.91601,9.46228,-0.03794
164.01601,9.46228,-0.03793
164.11601,9.46228,-0.03791
164.21601,9.46228,-0.03789
164.31601,9.46228,-0.03786
164.41601,9.46228,-0.03786
164.51601,9.46228,-0.03787
164.61601,9.46228,-0.03785
164.71601,9.46228,-0.03783
164.81601,9.46228,-0.03786
164.91601,9.46228,-0.03785
165.01601,9.46228,-0.03779
165.11601,9.46228,-0.03778
165.21601,9.46228,-0.03775
165.31601,9.46228,-0.03776
165.41601,9.46228,-0.03775
165.51601,9.46228,-0.03776
165.61601,9.46228,-0.03776
165.71601,9.46228,-0.03772
165.81601,9.46228,-0.03771
165.91601,9.46228,-0.03771
166.01601,9.46228,-0.03774
166.11601,9.46228,-0.03769
166.21601,9.46228,-0.03769
166.31601,9.46228,-0.03768
166.41601,9.46228,-0.03766
166.51601,9.46228,-0.03766
166.61601,9.46228,-0.03766
166.71601,9.46228,-0.03764
166.81601,9.46228,-0.03766
166.91601,9.46228,-0.03764
167.01601,9.46228,-0.03761
167.11601,9.46228,-0.03764
167.21601,9.46228,-0.03762
167.31601,9.46228,-0.03760
167.41601,9.46228,-0.03757
167.51601,9.46228,-0.03761
167.61601,9.46228,-0.03758
167.71601,9.46228,-0.03755
167.81601,9.46228,-0.03755
167.91601,9.46228,-0.03753
168.01601,9.46228,-0.03757
168.11601,9.46228,-0.03751
168.21601,9.46228,-0.03750
168.31601,9.46228,-0.03750
168.41601,9.46228,-0.03749
168.51601,9.46228,-0.03746
168.61601,9.46228,-0.03749
168.71601,9.46228,-0.03746
168.81601,9.46228,-0.03744
168.91601,9.46228,-0.03744
169.01601,9.46228,-0.03745
169.11601,9.46228,-0.03745
169.21601,9.46228,-0.03738
169.31601,9.46228,-0.03739
169.41601,9.46228,-0.03739
169.51601,9.46228,-0.03739
169.61601,9.46228,-0.03738
169.71601,9.46228,-0.03733
169.81601,9.46228,-0.03732
169.91601,9.46228,-0.03739
170.01601,9.46228,-0.03735
170.11601,9.46228,-0.03735
170.21601,9.46228,-0.03731
170.31601,9.46228,-0.03724
170.41601,9.46228,-0.03730
170.51601,9.46228,-0.03728
170.61601,9.46228,-0.03729
170.71601,9.46228,-0.03725
170.81601,9.46228,-0.03728
170.91601,9.46228,-0.03727
171.01601,9.46228,-0.03723
171.11601,9.46228,-0.03719
171.21601,9.46228,-0.03721
171.31601,9.46228,-0.03718
171.41601,9.46228,-0.03719
171.51601,9.46228,-0.03721
171.61601,9.46228,-0.03720
171.71601,9.46228,-0.03717
171.81601,9.46228,-0.03713
171.91601,9.46228,-0.03718
172.01601,9.46228,-0.03714
172.11601,9.46228,-0.03711
172.21601,9.46228,-0.03708
172.31601,9.46228,-0.03709
172.41601,9.46228,-0.03707
172.51601,9.46228,-0.03709
172.61601,9.46228,-0.03707
172.71601,9.46228,-0.03709
172.81601,9.46228,-0.03707
172.91601,9.46228,-0.03707
173.01601,9.46228,-0.03703
173.11601,9.46228,-0.03703
173.21601,9.46228,-0.03704
173.31601,9.46228,-0.03703
173.41601,9.46228,-0.03700
173.51601,9.46228,-0.03700
173.61601,9.46228,-0.03696
173.71601,9.46228,-0.03699
173.81601,9.46228,-0.03701
173.91601,9.46228,-0.03700
174.01601,9.46228,-0.03700
174.11601,9.46228,-0.03699
174.21601,9.46228,-0.03699
174.31601,9.46228,-0.03695
174.41601,9.46228,-0.03692
174.51601,9.46228,-0.03691
174.61601,9.46228,-0.03693
174.71601,9.46228,-0.03695
174.81601,9.46228,-0.03694
174.91601,9.46228,-0.03689
175.01601,9.46228,-0.03687
175.11601,9.46228,-0.03689
175.21601,9.46228,-0.03686
175.31601,9.46228,-0.03686
175.41601,9.46228,-0.03686
175.51601,9.46228,-0.03682
175.61601,9.46228,-0.03683
175.71601,9.46228,-0.03681
175.81601,9.46228,-0.03682
175.91601,9.46228,-0.03682
176.01601,9.46228,-0.03678
176.11601,9.46228,-0.03681
176.21601,9.46228,-0.03677
176.31601,9.46228,-0.03676
176.41601,9.46228,-0.03674
176.51601,9.46228,-0.03676
176.61601,9.46228,-0.03672
176.71601,9.46228,-0.03673
176.81601,9.46228,-0.03673
176.91601,9.46228,-0.03671
177.01601,9.46228,-0.03671
177.11601,9.46228,-0.03672
177.21601,9.46228,-0.03670
177.31601,9.46228,-0.03668
177.41601,9.46228,-0.03667
177.51601,9.46228,-0.03670
177.61601,9.46228,-0.03665
177.71601,9.46228,-0.03666
177.81601,9.46228,-0.03665
177.91601,9.46228,-0.03664
178.01601,9.46228,-0.03664
178.11601,9.46228,-0.03657
178.21601,9.46228,-0.03660
178.31601,9.46228,-0.03659
178.41601,9.46228,-0.03660
178.51601,9.46228,-0.03658
178.61601,9.46228,-0.03659
178.71601,9.46228,-0.03659
178.81601,9.46228,-0.03660
178.91601,9.46228,-0.03657
179.01601,9.46228,-0.03657
179.11601,9.46228,-0.03656
179.21601,9.46228,-0.03654
179.31601,9.46228,-0.03656
179.41601,9.46228,-0.03650
179.51601,9.46228,-0.03653
179.61601,9.46228,-0.03652
179.71601,9.46228,-0.03651
179.81601,9.46228,-0.03647
179.91601,9.46228,-0.03646
180.01601,9.46228,-0.03648
180.11601,9.46228,-0.03652
180.21601,9.46228,-0.03649
180.31601,9.46228,-0.03647
180.41601,9.46228,-0.03647
180.51601,9.46228,-0.03647
180.61601,9.46228,-0.03642
180.71601,9.46228,-0.03644
180.81601,9.46228,-0.03642
180.91601,9.46228,-0.03643
181.01601,9.46228,-0.03636
181.11601,9.46228,-0.03639
181.21601,9.46228,-0.03637
181.31601,9.46228,-0.03635
181.41601,9.46228,-0.03636
181.51601,9.46228,-0.03633
181.61601,9.46228,-0.03634
181.71601,9.46228,-0.03632
181.81601,9.46228,-0.03631
181.91601,9.46228,-0.03630
182.01601,9.46228,-0.03627
182.11601,9.46228,-0.03630
182.21601,9.46228,-0.03627
182.31601,9.46228,-0.03624
182.41601,9.46228,-0.03621
182.51601,9.46228,-0.03623
182.61601,9.46228,-0.03623
182.71601,9.46228,-0.03622
182.81601,9.46228,-0.03622
182.91601,9.46228,-0.03620
183.01601,9.46228,-0.03618
183.11601,9.46228,-0.03617
183.21601,9.46228,-0.03619
183.31601,9.46228,-0.03616
183.41601,9.46228,-0.03616
183.51601,9.46228,-0.03614
183.61601,9.46228,-0.03612
183.71601,9.46228,-0.03613
183.81601,9.46228,-0.03604
183.91601,9.46228,-0.03611
184.01601,9.46228,-0.03609
184.11601,9.46228,-0.03609
184.21601,9.46228,-0.03610
184.31601,9.46228,-0.03603
184.41601,9.46228,-0.03603
184.51601,9.46228,-0.03605
184.61601,9.46228,-0.03606
184.71601,9.46228,-0.03604
184.81601,9.46228,-0.03598
184.91601,9.46228,-0.03601
185.01601,9.46228,-0.03601
185.11601,9.46228,-0.03598
185.21601,9.46228,-0.03599
185.31601,9.46228,-0.03598
185.41601,9.46228,-0.03598
185.51601,9.46228,-0.03593
185.61601,9.46228,-0.03594
185.71601,9.46228,-0.03594
185.81601,9.46228,-0.03591
185.91601,9.46228,-0.03591
186.01601,9.46228,-0.03591
186.11601,9.46228,-0.03594
186.21601,9.46228,-0.03588
186.31601,9.46228,-0.03587
186.41601,9.46228,-0.03586
186.51601,9.46228,-0.03587
186.61601,9.46228,-0.03584
186.71601,9.46228,-0.03583
186.81601,9.46228,-0.03583
186.91601,9.46228,-0.03580
187.01601,9.46228,-0.03582
187.11601,9.46228,-0.03579
187.21601,9.46228,-0.03579
187.31601,9.46228,-0.03581
187.41601,9.46228,-0.03577
187.51601,9.46228,-0.03575
187.61601,9.46228,-0.03571
187.71601,9.46228,-0.03575
187.81601,9.46228,-0.03571
187.91601,9.46228,-0.03573
188.01601,9.46228,-0.03569
188.11601,9.46228,-0.03572
188.21601,9.46228,-0.03570
188.31601,9.46228,-0.03565
188.41601,9.46228,-0.03566
188.51601,9.46228,-0.03566
188.61601,9.46228,-0.03567
188.71601,9.46228,-0.03564
188.81601,9.46228,-0.03561
188.91601,9.46228,-0.03560
189.01601,9.46228,-0.03559
189.11601,9.46228,-0.03557
189.21601,9.46228,-0.03554
189.31601,9.46228,-0.03556
189.41601,9.46228,-0.03556
189.51601,9.46228,-0.03552
189.61601,9.46228,-0.03551
189.71601,9.46228,-0.03553
189.81601,9.46228,-0.03552
189.91601,9.46228,-0.03552
190.01601,9.46228,-0.03546
