Time,Extension,Load
(sec),(mm),(N)
0.00000,9.92186,0.00011
0.10000,9.92186,0.00010
0.20000,9.91977,-0.00007
0.30000,9.91144,-0.00094
0.40000,9.90415,-0.00170
0.50000,9.89852,-0.00223
0.60000,9.89269,-0.00285
0.70000,9.88748,-0.00346
0.80000,9.88228,-0.00399
0.90000,9.87727,-0.00461
1.00000,9.87227,-0.00516
1.10000,9.86728,-0.00580
1.20000,9.86227,-0.00645
1.30000,9.85727,-0.00702
1.40000,9.85207,-0.00780
1.50000,9.84707,-0.00845
1.60000,9.84186,-0.00920
1.70000,9.83707,-0.00993
1.80000,9.83228,-0.01067
1.90000,9.82727,-0.01139
2.00000,9.82227,-0.01224
2.10000,9.81728,-0.01301
2.20000,9.81207,-0.01388
2.30000,9.80707,-0.01468
2.40000,9.80207,-0.01555
2.50000,9.79707,-0.01643
2.60000,9.79207,-0.01730
2.70000,9.78707,-0.01813
2.80000,9.78228,-0.01901
2.90000,9.77727,-0.01991
3.00000,9.77207,-0.02092
3.10000,9.76686,-0.02191
3.20000,9.76165,-0.02291
3.30000,9.75665,-0.02392
3.40000,9.75207,-0.02482
3.50000,9.74707,-0.02574
3.60000,9.74186,-0.02688
3.70000,9.73686,-0.02783
3.80000,9.73186,-0.02891
3.90000,9.72644,-0.02998
4.00000,9.72165,-0.03107
4.10000,9.71665,-0.03217
4.20000,9.71186,-0.03317
4.30000,9.70727,-0.03417
4.40000,9.70227,-0.03528
4.50000,9.69707,-0.03642
4.60000,9.69186,-0.03765
4.70000,9.68665,-0.03882
4.80000,9.68165,-0.03996
4.90000,9.67665,-0.04119
5.00000,9.67207,-0.04226
5.10000,9.66707,-0.04342
5.20000,9.66228,-0.04462
5.30000,9.65707,-0.04580
5.40000,9.65207,-0.04705
5.50000,9.64686,-0.04840
5.60000,9.64207,-0.04966
5.70000,9.63707,-0.05095
5.80000,9.63228,-0.05211
5.90000,9.62728,-0.05341
6.00000,9.62248,-0.05465
6.10000,9.61707,-0.05603
6.20000,9.61186,-0.05748
6.30000,9.60665,-0.05892
6.40000,9.60186,-0.06020
6.50000,9.59707,-0.06148
6.60000,9.59228,-0.06273
6.70000,9.58727,-0.06416
6.80000,9.58248,-0.06546
6.90000,9.57686,-0.06704
7.00000,9.57144,-0.06859
7.10000,9.56644,-0.07008
7.20000,9.56165,-0.07141
7.30000,9.55686,-0.07282
7.40000,9.55207,-0.07414
7.50000,9.54707,-0.07558
7.60000,9.54248,-0.07691
7.70000,9.53707,-0.07852
7.80000,9.53144,-0.08024
7.90000,9.52665,-0.08177
8.00000,9.52165,-0.08318
8.10000,9.51686,-0.08471
8.20000,9.51207,-0.08612
8.30000,9.50686,-0.08761
8.40000,9.50227,-0.08910
8.50000,9.49728,-0.09061
8.60000,9.49207,-0.09229
8.70000,9.48665,-0.09405
8.80000,9.48165,-0.09564
8.90000,9.47686,-0.09728
9.00000,9.47207,-0.09877
9.10000,9.46707,-0.10045
9.20000,9.46228,-0.10197
9.30000,9.45686,-0.10377
9.40000,9.45165,-0.10561
9.50000,9.44665,-0.10728
9.60000,9.44186,-0.10885
9.70000,9.43728,-0.11040
9.80000,9.43228,-0.11200
9.90000,9.42728,-0.11379
10.00000,9.42248,-0.11531
10.02000,9.42144,-0.11567
10.02200,9.42144,-0.11570
10.12200,9.41998,-0.11604
10.22200,9.41998,-0.11531
10.32200,9.41998,-0.11456
10.42200,9.41998,-0.11391
10.52200,9.41998,-0.11327
10.62200,9.41998,-0.11272
10.72200,9.41998,-0.11219
10.82200,9.41998,-0.11169
10.92200,9.41998,-0.11122
11.02200,9.41998,-0.11070
11.12200,9.41998,-0.11025
11.22200,9.41998,-0.10985
11.32200,9.42040,-0.10937
11.42200,9.42040,-0.10898
11.52200,9.42040,-0.10853
11.62200,9.42061,-0.10808
11.72200,9.42061,-0.10768
11.82200,9.42061,-0.10730
11.92200,9.42082,-0.10690
12.02200,9.42082,-0.10650
12.12200,9.42082,-0.10615
12.22200,9.42082,-0.10579
12.32200,9.42103,-0.10544
12.42200,9.42103,-0.10508
12.52200,9.42103,-0.10466
12.62200,9.42103,-0.10433
12.72200,9.42123,-0.10402
12.82200,9.42123,-0.10370
12.92200,9.42123,-0.10335
13.02200,9.42123,-0.10304
13.12200,9.42123,-0.10276
13.22200,9.42123,-0.10244
13.32200,9.42123,-0.10217
13.42200,9.42123,-0.10183
13.52200,9.42144,-0.10153
13.62200,9.42144,-0.10126
13.72200,9.42144,-0.10100
13.82200,9.42144,-0.10072
13.92200,9.42144,-0.10048
14.02200,9.42144,-0.10017
14.12200,9.42144,-0.09991
14.22200,9.42144,-0.09961
14.32200,9.42144,-0.09939
14.42200,9.42144,-0.09914
14.52200,9.42144,-0.09884
14.62200,9.42144,-0.09864
14.72200,9.42144,-0.09839
14.82200,9.42144,-0.09812
14.92200,9.42144,-0.09788
15.02200,9.42144,-0.09760
15.12200,9.42144,-0.09738
15.22200,9.42144,-0.09716
15.32200,9.42144,-0.09694
15.42200,9.42144,-0.09667
15.52200,9.42144,-0.09642
15.62200,9.42144,-0.09620
15.72200,9.42144,-0.09596
15.82200,9.42144,-0.09575
15.92200,9.42144,-0.09556
16.02200,9.42144,-0.09530
16.12200,9.42144,-0.09508
16.22200,9.42144,-0.09486
16.32200,9.42144,-0.09465
16.42200,9.42144,-0.09443
16.52200,9.42144,-0.09420
16.62200,9.42144,-0.09400
16.72200,9.42144,-0.09379
16.82200,9.42144,-0.09358
16.92200,9.42144,-0.09337
17.02200,9.42144,-0.09316
17.12200,9.42144,-0.09298
17.22200,9.42144,-0.09278
17.32200,9.42144,-0.09256
17.42200,9.42144,-0.09237
17.52200,9.42144,-0.09215
17.62200,9.42144,-0.09197
17.72200,9.42144,-0.09175
17.82200,9.42144,-0.09154
17.92200,9.42144,-0.09138
18.02200,9.42144,-0.09116
18.12200,9.42144,-0.09100
18.22200,9.42144,-0.09082
18.32200,9.42144,-0.09062
18.42200,9.42144,-0.09038
18.52200,9.42144,-0.09022
18.62200,9.42144,-0.09007
18.72200,9.42144,-0.08985
18.82200,9.42144,-0.08966
18.92200,9.42144,-0.08948
19.02200,9.42144,-0.08934
19.12200,9.42144,-0.08917
19.22200,9.42144,-0.08896
19.32200,9.42144,-0.08880
19.42200,9.42144,-0.08864
19.52200,9.42144,-0.08845
19.62200,9.42144,-0.08828
19.72200,9.42144,-0.08809
19.82200,9.42144,-0.08797
19.92200,9.42144,-0.08780
20.02200,9.42144,-0.08757
20.12200,9.42144,-0.08747
20.22200,9.42144,-0.08730
20.32200,9.42144,-0.08707
20.42200,9.42144,-0.08696
20.52200,9.42144,-0.08678
20.62200,9.42144,-0.08662
20.72200,9.42144,-0.08647
20.82200,9.42144,-0.08628
20.92200,9.42144,-0.08613
21.02200,9.42144,-0.08595
21.12200,9.42144,-0.08583
21.22200,9.42144,-0.08567
21.32200,9.42144,-0.08548
21.42200,9.42144,-0.08536
21.52200,9.42144,-0.08514
21.62200,9.42144,-0.08503
21.72200,9.42144,-0.08491
21.82200,9.42144,-0.08473
21.92200,9.42144,-0.08460
22.02200,9.42144,-0.08443
22.12200,9.42144,-0.08432
22.22200,9.42144,-0.08411
22.32200,9.42144,-0.08400
22.42200,9.42144,-0.08381
22.52200,9.42144,-0.08371
22.62200,9.42144,-0.08355
22.72200,9.42144,-0.08341
22.82200,9.42144,-0.08325
22.92200,9.42144,-0.08311
23.02200,9.42144,-0.08294
23.12200,9.42144,-0.08283
23.22200,9.42144,-0.08270
23.32200,9.42144,-0.08258
23.42200,9.42144,-0.08242
23.52200,9.42144,-0.08226
23.62200,9.42144,-0.08213
23.72200,9.42144,-0.08202
23.82200,9.42144,-0.08186
23.92200,9.42144,-0.08177
24.02200,9.42144,-0.08159
24.12200,9.42144,-0.08146
24.22200,9.42144,-0.08133
24.32200,9.42144,-0.08120
24.42200,9.42144,-0.08105
24.52200,9.42144,-0.08090
24.62200,9.42144,-0.08082
24.72200,9.42144,-0.08070
24.82200,9.42144,-0.08057
24.92200,9.42144,-0.08044
25.02200,9.42144,-0.08029
25.12200,9.42144,-0.08014
25.22200,9.42144,-0.08004
25.32200,9.42144,-0.07994
25.42200,9.42144,-0.07977
25.52200,9.42144,-0.07959
25.62200,9.42144,-0.07953
25.72200,9.42144,-0.07937
25.82200,9.42144,-0.07929
25.92200,9.42144,-0.07913
26.02200,9.42144,-0.07905
26.12200,9.42144,-0.07890
26.22200,9.42144,-0.07879
26.32200,9.42144,-0.07869
26.42200,9.42144,-0.07856
26.52200,9.42144,-0.07839
26.62200,9.42144,-0.07833
26.72200,9.42144,-0.07821
26.82200,9.42144,-0.07807
26.92200,9.42144,-0.07795
27.02200,9.42144,-0.07780
27.12200,9.42144,-0.07772
27.22200,9.42144,-0.07763
27.32200,9.42144,-0.07748
27.42200,9.42144,-0.07739
27.52200,9.42144,-0.07728
27.62200,9.42144,-0.07714
27.72200,9.42144,-0.07703
27.82200,9.42144,-0.07687
27.92200,9.42144,-0.07682
28.02200,9.42144,-0.07668
28.12200,9.42144,-0.07660
28.22200,9.42144,-0.07648
28.32200,9.42144,-0.07638
28.42200,9.42144,-0.07625
28.52200,9.42144,-0.07616
28.62200,9.42144,-0.07603
28.72200,9.42144,-0.07595
28.82200,9.42144,-0.07580
28.92200,9.42144,-0.07572
29.02200,9.42144,-0.07563
29.12200,9.42144,-0.07555
29.22200,9.42144,-0.07538
29.32200,9.42144,-0.07529
29.42200,9.42144,-0.07516
29.52200,9.42144,-0.07508
29.62200,9.42144,-0.07500
29.72200,9.42144,-0.07487
29.82200,9.42144,-0.07476
29.92200,9.42144,-0.07466
30.02200,9.42144,-0.07451
30.12200,9.42144,-0.07446
30.22200,9.42144,-0.07435
30.32200,9.42144,-0.07430
30.42200,9.42144,-0.07415
30.52200,9.42144,-0.07403
30.62200,9.42144,-0.07396
30.72200,9.42144,-0.07385
30.82200,9.42144,-0.07375
30.92200,9.42144,-0.07365
31.02200,9.42144,-0.07352
31.12200,9.42144,-0.07347
31.22200,9.42144,-0.07333
31.32200,9.42144,-0.07324
31.42200,9.42144,-0.07316
31.52200,9.42144,-0.07307
31.62200,9.42144,-0.07296
31.72200,9.42144,-0.07288
31.82200,9.42144,-0.07275
31.92200,9.42144,-0.07269
32.02200,9.42144,-0.07258
32.12200,9.42144,-0.07246
32.22200,9.42144,-0.07238
32.32200,9.42144,-0.07232
32.42200,9.42144,-0.07219
32.52200,9.42144,-0.07208
32.62200,9.42144,-0.07199
32.72200,9.42144,-0.07196
32.82200,9.42144,-0.07184
32.92200,9.42144,-0.07176
33.02200,9.42144,-0.07167
33.12200,9.42144,-0.07153
33.22200,9.42144,-0.07144
33.32200,9.42144,-0.07133
33.42200,9.42144,-0.07129
33.52200,9.42144,-0.07118
33.62200,9.42144,-0.07114
33.72200,9.42144,-0.07103
33.82200,9.42144,-0.07090
33.92200,9.42144,-0.07084
34.02200,9.42144,-0.07075
34.12200,9.42144,-0.07067
34.22200,9.42144,-0.07057
34.32200,9.42144,-0.07053
34.42200,9.42144,-0.07041
34.52200,9.42144,-0.07031
34.62200,9.42144,-0.07025
34.72200,9.42144,-0.07016
34.82200,9.42144,-0.07009
34.92200,9.42144,-0.06999
35.02200,9.42144,-0.06991
35.12200,9.42144,-0.06984
35.22200,9.42144,-0.06971
35.32200,9.42144,-0.06963
35.42200,9.42144,-0.06957
35.52200,9.42144,-0.06946
35.62200,9.42144,-0.06941
35.72200,9.42144,-0.06932
35.82200,9.42144,-0.06919
35.92200,9.42144,-0.06915
36.02200,9.42144,-0.06904
36.12200,9.42144,-0.06901
36.22200,9.42144,-0.06891
36.32200,9.42144,-0.06885
36.42200,9.42144,-0.06873
36.52200,9.42144,-0.06864
36.62200,9.42144,-0.06859
36.72200,9.42144,-0.06849
36.82200,9.42144,-0.06842
36.92200,9.42144,-0.06835
37.02200,9.42144,-0.06828
37.12200,9.42144,-0.06820
37.22200,9.42144,-0.06814
37.32200,9.42144,-0.06800
37.42200,9.42144,-0.06798
37.52200,9.42144,-0.06787
37.62200,9.42144,-0.06780
37.72200,9.42144,-0.06773
37.82200,9.42144,-0.06762
37.92200,9.42144,-0.06756
38.02200,9.42144,-0.06747
38.12200,9.42144,-0.06740
38.22200,9.42144,-0.06731
38.32200,9.42144,-0.06725
38.42200,9.42144,-0.06716
38.52200,9.42144,-0.06708
38.62200,9.42144,-0.06702
38.72200,9.42144,-0.06690
38.82200,9.42144,-0.06685
38.92200,9.42144,-0.06678
39.02200,9.42144,-0.06670
39.12200,9.42144,-0.06663
39.22200,9.42144,-0.06651
39.32200,9.42144,-0.06646
39.42200,9.42144,-0.06639
39.52200,9.42144,-0.06634
39.62200,9.42144,-0.06625
39.72200,9.42144,-0.06615
39.82200,9.42144,-0.06608
39.92200,9.42144,-0.06602
40.02200,9.42144,-0.06593
40.12200,9.42144,-0.06589
40.22200,9.42144,-0.06583
40.32200,9.42144,-0.06576
40.42200,9.42144,-0.06568
40.52200,9.42144,-0.06558
40.62200,9.42144,-0.06553
40.72200,9.42144,-0.06546
40.82200,9.42144,-0.06539
40.92200,9.42144,-0.06532
41.02200,9.42144,-0.06523
41.12200,9.42144,-0.06518
41.22200,9.42144,-0.06508
41.32200,9.42144,-0.06503
41.42200,9.42144,-0.06494
41.52200,9.42144,-0.06490
41.62200,9.42144,-0.06483
41.72200,9.42144,-0.06475
41.82200,9.42144,-0.06469
41.92200,9.42144,-0.06460
42.02200,9.42144,-0.06453
42.12200,9.42144,-0.06450
42.22200,9.42144,-0.06440
42.32200,9.42144,-0.06437
42.42200,9.42144,-0.06428
42.52200,9.42144,-0.06418
42.62200,9.42144,-0.06414
42.72200,9.42144,-0.06411
42.82200,9.42144,-0.06402
42.92200,9.42144,-0.06395
43.02200,9.42144,-0.06391
43.12200,9.42144,-0.06381
43.22200,9.42144,-0.06373
43.32200,9.42144,-0.06366
43.42200,9.42144,-0.06362
43.52200,9.42144,-0.06356
43.62200,9.42144,-0.06349
43.72200,9.42144,-0.06345
43.82200,9.42144,-0.06336
43.92200,9.42144,-0.06328
44.02200,9.42144,-0.06320
44.12200,9.42144,-0.06314
44.22200,9.42144,-0.06310
44.32200,9.42144,-0.06305
44.42200,9.42144,-0.06295
44.52200,9.42144,-0.06290
44.62200,9.42144,-0.06285
44.72200,9.42144,-0.06280
44.82200,9.42144,-0.06271
44.92200,9.42144,-0.06265
45.02200,9.42144,-0.06256
45.12200,9.42144,-0.06254
45.22200,9.42144,-0.06241
45.32200,9.42144,-0.06243
45.42200,9.42144,-0.06237
45.52200,9.42144,-0.06231
45.62200,9.42144,-0.06224
45.72200,9.42144,-0.06218
45.82200,9.42144,-0.06209
45.92200,9.42144,-0.06205
46.02200,9.42144,-0.06198
46.12200,9.42144,-0.06192
46.22200,9.42144,-0.06188
46.32200,9.42144,-0.06184
46.42200,9.42144,-0.06173
46.52200,9.42144,-0.06169
46.62200,9.42144,-0.06162
46.72200,9.42144,-0.06160
46.82200,9.42144,-0.06148
46.92200,9.42144,-0.06146
47.02200,9.42144,-0.06140
47.12200,9.42144,-0.06134
47.22200,9.42144,-0.06128
47.32200,9.42144,-0.06119
47.42200,9.42144,-0.06114
47.52200,9.42144,-0.06108
47.62200,9.42144,-0.06105
47.72200,9.42144,-0.06099
47.82200,9.42144,-0.06094
47.92200,9.42144,-0.06083
48.02200,9.42144,-0.06080
48.12200,9.42144,-0.06074
48.22200,9.42144,-0.06070
48.32200,9.42144,-0.06063
48.42200,9.42144,-0.06057
48.52200,9.42144,-0.06049
48.62200,9.42144,-0.06043
48.72200,9.42144,-0.06040
48.82200,9.42144,-0.06036
48.92200,9.42144,-0.06029
49.02200,9.42144,-0.06023
49.12200,9.42144,-0.06018
49.22200,9.42144,-0.06015
49.32200,9.42144,-0.06010
49.42200,9.42144,-0.06003
49.52200,9.42144,-0.05996
49.62200,9.42144,-0.05990
49.72200,9.42144,-0.05981
49.82200,9.42144,-0.05980
49.92200,9.42144,-0.05974
50.02200,9.42144,-0.05970
50.12200,9.42144,-0.05963
50.22200,9.42144,-0.05958
50.32200,9.42144,-0.05956
50.42200,9.42144,-0.05946
50.52200,9.42144,-0.05940
50.62200,9.42144,-0.05937
50.72200,9.42144,-0.05930
50.82200,9.42144,-0.05928
50.92200,9.42144,-0.05916
51.02200,9.42144,-0.05911
51.12200,9.42144,-0.05908
51.22200,9.42144,-0.05903
51.32200,9.42144,-0.05900
51.42200,9.42144,-0.05894
51.52200,9.42144,-0.05888
51.62200,9.42144,-0.05878
51.72200,9.42144,-0.05878
51.82200,9.42144,-0.05871
51.92200,9.42144,-0.05867
52.02200,9.42144,-0.05860
52.12200,9.42144,-0.05856
52.22200,9.42144,-0.05850
52.32200,9.42144,-0.05846
52.42200,9.42144,-0.05839
52.52200,9.42144,-0.05832
52.62200,9.42144,-0.05828
52.72200,9.42144,-0.05827
52.82200,9.42144,-0.05821
52.92200,9.42144,-0.05811
53.02200,9.42144,-0.05808
53.12200,9.42144,-0.05801
53.22200,9.42144,-0.05797
53.32200,9.42144,-0.05795
53.42200,9.42144,-0.05788
53.52200,9.42144,-0.05779
53.62200,9.42144,-0.05779
53.72200,9.42144,-0.05775
53.82200,9.42144,-0.05768
53.92200,9.42144,-0.05762
54.02200,9.42144,-0.05757
54.12200,9.42144,-0.05754
54.22200,9.42144,-0.05745
54.32200,9.42144,-0.05745
54.42200,9.42144,-0.05740
54.52200,9.42144,-0.05734
54.62200,9.42144,-0.05728
54.72200,9.42144,-0.05724
54.82200,9.42144,-0.05718
54.92200,9.42144,-0.05712
55.02200,9.42144,-0.05709
55.12200,9.42144,-0.05703
55.22200,9.42144,-0.05695
55.32200,9.42144,-0.05693
55.42200,9.42144,-0.05690
55.52200,9.42144,-0.05684
55.62200,9.42144,-0.05682
55.72200,9.42144,-0.05676
55.82200,9.42144,-0.05670
55.92200,9.42144,-0.05665
56.02200,9.42144,-0.05657
56.12200,9.42144,-0.05658
56.22200,9.42144,-0.05649
56.32200,9.42144,-0.05647
56.42200,9.42144,-0.05642
56.52200,9.42144,-0.05634
56.62200,9.42144,-0.05632
56.72200,9.42144,-0.05628
56.82200,9.42144,-0.05624
56.92200,9.42144,-0.05620
57.02200,9.42144,-0.05615
57.12200,9.42144,-0.05606
57.22200,9.42144,-0.05603
57.32200,9.42144,-0.05600
57.42200,9.42144,-0.05600
57.52200,9.42144,-0.05592
57.62200,9.42144,-0.05584
57.72200,9.42144,-0.05582
57.82200,9.42144,-0.05580
57.92200,9.42144,-0.05573
58.02200,9.42144,-0.05569
58.12200,9.42144,-0.05563
58.22200,9.42144,-0.05560
58.32200,9.42144,-0.05555
58.42200,9.42144,-0.05548
58.52200,9.42144,-0.05545
58.62200,9.42144,-0.05540
58.72200,9.42144,-0.05539
58.82200,9.42144,-0.05533
58.92200,9.42144,-0.05527
59.02200,9.42144,-0.05521
59.12200,9.42144,-0.05518
59.22200,9.42144,-0.05516
59.32200,9.42144,-0.05512
59.42200,9.42144,-0.05507
59.52200,9.42144,-0.05503
59.62200,9.42144,-0.05494
59.72200,9.42144,-0.05494
59.82200,9.42144,-0.05485
59.92200,9.42144,-0.05484
60.02200,9.42144,-0.05480
60.12200,9.42144,-0.05474
60.22200,9.42144,-0.05473
60.32200,9.42144,-0.05467
60.42200,9.42144,-0.05462
60.52200,9.42144,-0.05458
60.62200,9.42144,-0.05451
60.72200,9.42144,-0.05451
60.82200,9.42144,-0.05448
60.92200,9.42144,-0.05443
61.02200,9.42144,-0.05436
61.12200,9.42144,-0.05434
61.22200,9.42144,-0.05431
61.32200,9.42144,-0.05429
61.42200,9.42144,-0.05421
61.52200,9.42144,-0.05416
61.62200,9.42144,-0.05414
61.72200,9.42144,-0.05410
61.82200,9.42144,-0.05405
61.92200,9.42144,-0.05400
62.02200,9.42144,-0.05395
62.12200,9.42144,-0.05391
62.22200,9.42144,-0.05386
62.32200,9.42144,-0.05382
62.42200,9.42144,-0.05375
62.52200,9.42144,-0.05370
62.62200,9.42144,-0.05371
62.72200,9.42144,-0.05363
62.82200,9.42144,-0.05360
62.92200,9.42144,-0.05358
63.02200,9.42144,-0.05354
63.12200,9.42144,-0.05345
63.22200,9.42144,-0.05343
63.32200,9.42144,-0.05338
63.42200,9.42144,-0.05335
63.52200,9.42144,-0.05331
63.62200,9.42144,-0.05323
63.72200,9.42144,-0.05319
63.82200,9.42144,-0.05321
63.92200,9.42144,-0.05312
64.02200,9.42144,-0.05309
64.12200,9.42144,-0.05305
64.22200,9.42144,-0.05304
64.32200,9.42144,-0.05300
64.42200,9.42144,-0.05295
64.52200,9.42144,-0.05291
64.62200,9.42144,-0.05285
64.72200,9.42144,-0.05281
64.82200,9.42144,-0.05281
64.92200,9.42144,-0.05272
65.02200,9.42144,-0.05270
65.12200,9.42144,-0.05266
65.22200,9.42144,-0.05263
65.32200,9.42144,-0.05258
65.42200,9.42144,-0.05256
65.52200,9.42144,-0.05249
65.62200,9.42144,-0.05244
65.72200,9.42144,-0.05242
65.82200,9.42144,-0.05238
65.92200,9.42144,-0.05235
66.02200,9.42144,-0.05232
66.12200,9.42144,-0.05225
66.22200,9.42144,-0.05224
66.32200,9.42144,-0.05220
66.42200,9.42144,-0.05212
66.52200,9.42144,-0.05213
66.62200,9.42144,-0.05206
66.72200,9.42144,-0.05204
66.82200,9.42144,-0.05202
66.92200,9.42144,-0.05198
67.02200,9.42144,-0.05195
67.12200,9.42144,-0.05189
67.22200,9.42144,-0.05187
67.32200,9.42144,-0.05182
67.42200,9.42144,-0.05180
67.52200,9.42144,-0.05179
67.62200,9.42144,-0.05171
67.72200,9.42144,-0.05167
67.82200,9.42144,-0.05163
67.92200,9.42144,-0.05159
68.02200,9.42144,-0.05155
68.12200,9.42144,-0.05155
68.22200,9.42144,-0.05154
68.32200,9.42144,-0.05149
68.42200,9.42144,-0.05143
68.52200,9.42144,-0.05138
68.62200,9.42144,-0.05137
68.72200,9.42144,-0.05130
68.82200,9.42144,-0.05128
68.92200,9.42144,-0.05124
69.02200,9.42144,-0.05121
69.12200,9.42144,-0.05118
69.22200,9.42144,-0.05117
69.32200,9.42144,-0.05114
69.42200,9.42144,-0.05111
69.52200,9.42144,-0.05109
69.62200,9.42144,-0.05101
69.72200,9.42144,-0.05098
69.82200,9.42144,-0.05094
69.92200,9.42144,-0.05088
70.02200,9.42144,-0.05087
70.12200,9.42144,-0.05086
70.22200,9.42144,-0.05080
70.32200,9.42144,-0.05075
70.42200,9.42144,-0.05071
70.52200,9.42144,-0.05065
70.62200,9.42144,-0.05063
70.72200,9.42144,-0.05062
70.82200,9.42144,-0.05060
70.92200,9.42144,-0.05056
71.02200,9.42144,-0.05053
71.12200,9.42144,-0.05050
71.22200,9.42144,-0.05047
71.32200,9.42144,-0.05046
71.42200,9.42144,-0.05038
71.52200,9.42144,-0.05034
71.62200,9.42144,-0.05028
71.72200,9.42144,-0.05029
71.82200,9.42144,-0.05024
71.92200,9.42144,-0.05019
72.02200,9.42144,-0.05015
72.12200,9.42144,-0.05014
72.22200,9.42144,-0.05010
72.32200,9.42144,-0.05006
72.42200,9.42144,-0.05002
72.52200,9.42144,-0.05000
72.62200,9.42144,-0.04995
72.72200,9.42144,-0.04988
72.82200,9.42144,-0.04990
72.92200,9.42144,-0.04987
73.02200,9.42144,-0.04981
73.12200,9.42144,-0.04976
73.22200,9.42144,-0.04977
73.32200,9.42144,-0.04967
73.42200,9.42144,-0.04967
73.52200,9.42144,-0.04965
73.62200,9.42144,-0.04963
73.72200,9.42144,-0.04963
73.82200,9.42144,-0.04956
73.92200,9.42144,-0.04957
74.02200,9.42144,-0.04945
74.12200,9.42144,-0.04947
74.22200,9.42144,-0.04944
74.32200,9.42144,-0.04937
74.42200,9.42144,-0.04934
74.52200,9.42144,-0.04933
74.62200,9.42144,-0.04930
74.72200,9.42144,-0.04923
74.82200,9.42144,-0.04922
74.92200,9.42144,-0.04923
75.02200,9.42144,-0.04915
75.12200,9.42144,-0.04912
75.22200,9.42144,-0.04911
75.32200,9.42144,-0.04907
75.42200,9.42144,-0.04901
75.52200,9.42144,-0.04901
75.62200,9.42144,-0.04896
75.72200,9.42144,-0.04894
75.82200,9.42144,-0.04889
75.92200,9.42144,-0.04886
76.02200,9.42144,-0.04883
76.12200,9.42144,-0.04881
76.22200,9.42144,-0.04876
76.32200,9.42144,-0.04874
76.42200,9.42144,-0.04871
76.52200,9.42144,-0.04869
76.62200,9.42144,-0.04864
76.72200,9.42144,-0.04862
76.82200,9.42144,-0.04861
76.92200,9.42144,-0.04857
77.02200,9.42144,-0.04854
77.12200,9.42144,-0.04851
77.22200,9.42144,-0.04848
77.32200,9.42144,-0.04848
77.42200,9.42144,-0.04843
77.52200,9.42144,-0.04837
77.62200,9.42144,-0.04837
77.72200,9.42144,-0.04833
77.82200,9.42144,-0.04828
77.92200,9.42144,-0.04829
78.02200,9.42144,-0.04825
78.12200,9.42144,-0.04823
78.22200,9.42144,-0.04820
78.32200,9.42144,-0.04818
78.42200,9.42144,-0.04817
78.52200,9.42144,-0.04811
78.62200,9.42144,-0.04809
78.72200,9.42144,-0.04807
78.82200,9.42144,-0.04805
78.92200,9.42144,-0.04799
79.02200,9.42144,-0.04801
79.12200,9.42144,-0.04797
79.22200,9.42144,-0.04796
79.32200,9.42144,-0.04790
79.42200,9.42144,-0.04786
79.52200,9.42144,-0.04788
79.62200,9.42144,-0.04782
79.72200,9.42144,-0.04776
79.82200,9.42144,-0.04773
79.92200,9.42144,-0.04773
80.02200,9.42144,-0.04771
80.12200,9.42144,-0.04766
80.22200,9.42144,-0.04768
80.32200,9.42144,-0.04760
80.42200,9.42144,-0.04759
80.52200,9.42144,-0.04753
80.62200,9.42144,-0.04750
80.72200,9.42144,-0.04750
80.82200,9.42144,-0.04748
80.92200,9.42144,-0.04742
81.02200,9.42144,-0.04744
81.12200,9.42144,-0.04739
81.22200,9.42144,-0.04736
81.32200,9.42144,-0.04734
81.42200,9.42144,-0.04728
81.52200,9.42144,-0.04729
81.62200,9.42144,-0.04727
81.72200,9.42144,-0.04717
81.82200,9.42144,-0.04720
81.92200,9.42144,-0.04717
82.02200,9.42144,-0.04712
82.12200,9.42144,-0.04711
82.22200,9.42144,-0.04709
82.32200,9.42144,-0.04705
82.42200,9.42144,-0.04703
82.52200,9.42144,-0.04698
82.62200,9.42144,-0.04699
82.72200,9.42144,-0.04697
82.82200,9.42144,-0.04693
82.92200,9.42144,-0.04690
83.02200,9.42144,-0.04688
83.12200,9.42144,-0.04686
83.22200,9.42144,-0.04683
83.32200,9.42144,-0.04680
83.42200,9.42144,-0.04680
83.52200,9.42144,-0.04672
83.62200,9.42144,-0.04673
83.72200,9.42144,-0.04664
83.82200,9.42144,-0.04665
83.92200,9.42144,-0.04663
84.02200,9.42144,-0.04661
84.12200,9.42144,-0.04657
84.22200,9.42144,-0.04655
84.32200,9.42144,-0.04650
84.42200,9.42144,-0.04648
84.52200,9.42144,-0.04647
84.62200,9.42144,-0.04644
84.72200,9.42144,-0.04643
84.82200,9.42144,-0.04641
84.92200,9.42144,-0.04636
85.02200,9.42144,-0.04631
85.12200,9.42144,-0.04634
85.22200,9.42144,-0.04627
85.32200,9.42144,-0.04627
85.42200,9.42144,-0.04622
85.52200,9.42144,-0.04619
85.62200,9.42144,-0.04619
85.72200,9.42144,-0.04612
85.82200,9.42144,-0.04610
85.92200,9.42144,-0.04612
86.02200,9.42144,-0.04608
86.12200,9.42144,-0.04610
86.22200,9.42144,-0.04602
86.32200,9.42144,-0.04600
86.42200,9.42144,-0.04596
86.52200,9.42144,-0.04596
86.62200,9.42144,-0.04594
86.72200,9.42144,-0.04591
86.82200,9.42144,-0.04588
86.92200,9.42144,-0.04590
87.02200,9.42144,-0.04582
87.12200,9.42144,-0.04584
87.22200,9.42144,-0.04579
87.32200,9.42144,-0.04581
87.42200,9.42144,-0.04579
87.52200,9.42144,-0.04573
87.62200,9.42144,-0.04569
87.72200,9.42144,-0.04567
87.82200,9.42144,-0.04566
87.92200,9.42144,-0.04562
88.02200,9.42144,-0.04560
88.12200,9.42144,-0.04563
88.22200,9.42144,-0.04556
88.32200,9.42144,-0.04552
88.42200,9.42144,-0.04551
88.52200,9.42144,-0.04549
88.62200,9.42144,-0.04546
88.72200,9.42144,-0.04543
88.82200,9.42144,-0.04543
88.92200,9.42144,-0.04539
89.02200,9.42144,-0.04533
89.12200,9.42144,-0.04532
89.22200,9.42144,-0.04532
89.32200,9.42144,-0.04529
89.42200,9.42144,-0.04527
89.52200,9.42144,-0.04523
89.62200,9.42144,-0.04523
89.72200,9.42144,-0.04518
89.82200,9.42144,-0.04515
89.92200,9.42144,-0.04517
90.02200,9.42144,-0.04511
90.12200,9.42144,-0.04509
90.22200,9.42144,-0.04503
90.32200,9.42144,-0.04502
90.42200,9.42144,-0.04500
90.52200,9.42144,-0.04496
90.62200,9.42144,-0.04493
90.72200,9.42144,-0.04492
90.82200,9.42144,-0.04486
90.92200,9.42144,-0.04486
91.02200,9.42144,-0.04489
91.12200,9.42144,-0.04483
91.22200,9.42144,-0.04480
91.32200,9.42144,-0.04479
91.42200,9.42144,-0.04478
91.52200,9.42144,-0.04474
91.62200,9.42144,-0.04472
91.72200,9.42144,-0.04469
91.82200,9.42144,-0.04467
91.92200,9.42144,-0.04464
92.02200,9.42144,-0.04462
92.12200,9.42144,-0.04459
92.22200,9.42144,-0.04454
92.32200,9.42144,-0.04454
92.42200,9.42144,-0.04459
92.52200,9.42144,-0.04452
92.62200,9.42144,-0.04454
92.72200,9.42144,-0.04445
92.82200,9.42144,-0.04444
92.92200,9.42144,-0.04443
93.02200,9.42144,-0.04437
93.12200,9.42144,-0.04440
93.22200,9.42144,-0.04435
93.32200,9.42144,-0.04433
93.42200,9.42144,-0.04430
93.52200,9.42144,-0.04432
93.62200,9.42144,-0.04427
93.72200,9.42144,-0.04422
93.82200,9.42144,-0.04420
93.92200,9.42144,-0.04418
94.02200,9.42144,-0.04419
94.12200,9.42144,-0.04414
94.22200,9.42144,-0.04411
94.32200,9.42144,-0.04412
94.42200,9.42144,-0.04412
94.52200,9.42144,-0.04410
94.62200,9.42144,-0.04405
94.72200,9.42144,-0.04402
94.82200,9.42144,-0.04402
94.92200,9.42144,-0.04399
95.02200,9.42144,-0.04396
95.12200,9.42144,-0.04398
95.22200,9.42144,-0.04393
95.32200,9.42144,-0.04390
95.42200,9.42144,-0.04386
95.52200,9.42144,-0.04386
95.62200,9.42144,-0.04385
95.72200,9.42144,-0.04380
95.82200,9.42144,-0.04377
95.92200,9.42144,-0.04374
96.02200,9.42144,-0.04371
96.12200,9.42144,-0.04371
96.22200,9.42144,-0.04367
96.32200,9.42144,-0.04365
96.42200,9.42144,-0.04366
96.52200,9.42144,-0.04360
96.62200,9.42144,-0.04356
96.72200,9.42144,-0.04357
96.82200,9.42144,-0.04351
96.92200,9.42144,-0.04352
97.02200,9.42144,-0.04351
97.12200,9.42144,-0.04349
97.22200,9.42144,-0.04346
97.32200,9.42144,-0.04345
97.42200,9.42144,-0.04343
97.52200,9.42144,-0.04341
97.62200,9.42144,-0.04337
97.72200,9.42144,-0.04337
97.82200,9.42144,-0.04335
97.92200,9.42144,-0.04334
98.02200,9.42144,-0.04329
98.12200,9.42144,-0.04327
98.22200,9.42144,-0.04329
98.32200,9.42144,-0.04323
98.42200,9.42144,-0.04322
98.52200,9.42144,-0.04321
98.62200,9.42144,-0.04318
98.72200,9.42144,-0.04316
98.82200,9.42144,-0.04315
98.92200,9.42144,-0.04308
99.02200,9.42144,-0.04312
99.12200,9.42144,-0.04306
99.22200,9.42144,-0.04304
99.32200,9.42144,-0.04303
99.42200,9.42144,-0.04301
99.52200,9.42144,-0.04296
99.62200,9.42144,-0.04297
99.72200,9.42144,-0.04294
99.82200,9.42144,-0.04293
99.92200,9.42144,-0.04289
100.02200,9.42144,-0.04288
100.12200,9.42144,-0.04284
100.22200,9.42144,-0.04286
100.32200,9.42144,-0.04282
100.42200,9.42144,-0.04280
100.52200,9.42144,-0.04278
100.62200,9.42144,-0.04278
100.72200,9.42144,-0.04274
100.82200,9.42144,-0.04271
100.92200,9.42144,-0.04268
101.02200,9.42144,-0.04267
101.12200,9.42144,-0.04266
101.22200,9.42144,-0.04263
101.32200,9.42144,-0.04258
101.42200,9.42144,-0.04260
101.52200,9.42144,-0.04260
101.62200,9.42144,-0.04257
101.72200,9.42144,-0.04257
101.82200,9.42144,-0.04250
101.92200,9.42144,-0.04250
102.02200,9.42144,-0.04248
102.12200,9.42144,-0.04246
102.22200,9.42144,-0.04244
102.32200,9.42144,-0.04240
102.42200,9.42144,-0.04236
102.52200,9.42144,-0.04238
102.62200,9.42144,-0.04234
102.72200,9.42144,-0.04233
102.82200,9.42144,-0.04230
102.92200,9.42144,-0.04227
103.02200,9.42144,-0.04227
103.12200,9.42144,-0.04224
103.22200,9.42144,-0.04221
103.32200,9.42144,-0.04218
103.42200,9.42144,-0.04218
103.52200,9.42144,-0.04218
103.62200,9.42144,-0.04215
103.72200,9.42144,-0.04212
103.82200,9.42144,-0.04207
103.92200,9.42144,-0.04208
104.02200,9.42144,-0.04203
104.12200,9.42144,-0.04205
104.22200,9.42144,-0.04202
104.32200,9.42144,-0.04199
104.42200,9.42144,-0.04197
104.52200,9.42144,-0.04194
104.62200,9.42144,-0.04194
104.72200,9.42144,-0.04191
104.82200,9.42144,-0.04192
104.92200,9.42144,-0.04191
105.02200,9.42144,-0.04183
105.12200,9.42144,-0.04184
105.22200,9.42144,-0.04183
105.32201,9.42144,-0.04180
105.42201,9.42144,-0.04180
105.52201,9.42144,-0.04177
105.62201,9.42144,-0.04176
105.72201,9.42144,-0.04176
105.82201,9.42144,-0.04169
105.92201,9.42144,-0.04169
106.02201,9.42144,-0.04168
106.12201,9.42144,-0.04169
106.22201,9.42144,-0.04165
106.32201,9.42144,-0.04162
106.42201,9.42144,-0.04161
106.52201,9.42144,-0.04157
106.62201,9.42144,-0.04157
106.72201,9.42144,-0.04154
106.82201,9.42144,-0.04153
106.92201,9.42144,-0.04149
107.02201,9.42144,-0.04149
107.12201,9.42144,-0.04147
107.22201,9.42144,-0.04146
107.32201,9.42144,-0.04140
107.42201,9.42144,-0.04142
107.52201,9.42144,-0.04137
107.62201,9.42144,-0.04138
107.72201,9.42144,-0.04136
107.82201,9.42144,-0.04135
107.92201,9.42144,-0.04129
108.02201,9.42144,-0.04131
108.12201,9.42144,-0.04129
108.22201,9.42144,-0.04128
108.32201,9.42144,-0.04121
108.42201,9.42144,-0.04122
108.52201,9.42144,-0.04118
108.62201,9.42144,-0.04121
108.72201,9.42144,-0.04119
108.82201,9.42144,-0.04119
108.92201,9.42144,-0.04119
109.02201,9.42144,-0.04115
109.12201,9.42144,-0.04116
109.22201,9.42144,-0.04111
109.32201,9.42144,-0.04109
109.42201,9.42144,-0.04111
109.52201,9.42144,-0.04109
109.62201,9.42144,-0.04108
109.72201,9.42144,-0.04103
109.82201,9.42144,-0.04103
109.92201,9.42144,-0.04100
110.02201,9.42144,-0.04099
110.12201,9.42144,-0.04098
110.22201,9.42144,-0.04096
110.32201,9.42144,-0.04090
110.42201,9.42144,-0.04091
110.52201,9.42144,-0.04085
110.62201,9.42144,-0.04087
110.72201,9.42144,-0.04086
110.82201,9.42144,-0.04086
110.92201,9.42144,-0.04083
111.02201,9.42144,-0.04081
111.12201,9.42144,-0.04078
111.22201,9.42144,-0.04076
111.32201,9.42144,-0.04078
111.42201,9.42144,-0.04076
111.52201,9.42144,-0.04074
111.62201,9.42144,-0.04071
111.72201,9.42144,-0.04069
111.82201,9.42144,-0.04067
111.92201,9.42144,-0.04066
112.02201,9.42144,-0.04060
112.12201,9.42144,-0.04060
112.22201,9.42144,-0.04060
112.32201,9.42144,-0.04055
112.42201,9.42144,-0.04054
112.52201,9.42144,-0.04050
112.62201,9.42144,-0.04052
112.72201,9.42144,-0.04050
112.82201,9.42144,-0.04052
112.92201,9.42144,-0.04045
113.02201,9.42144,-0.04048
113.12201,9.42144,-0.04043
113.22201,9.42144,-0.04045
113.32201,9.42144,-0.04041
113.42201,9.42144,-0.04041
113.52201,9.42144,-0.04039
113.62201,9.42144,-0.04033
113.72201,9.42144,-0.04036
113.82201,9.42144,-0.04035
113.92201,9.42144,-0.04031
114.02201,9.42144,-0.04028
114.12201,9.42144,-0.04025
114.22201,9.42144,-0.04024
114.32201,9.42144,-0.04023
114.42201,9.42144,-0.04020
114.52201,9.42144,-0.04020
114.62201,9.42144,-0.04022
114.72201,9.42144,-0.04017
114.82201,9.42144,-0.04018
114.92201,9.42144,-0.04015
115.02201,9.42144,-0.04011
115.12201,9.42144,-0.04012
115.22201,9.42144,-0.04006
115.32201,9.42144,-0.04006
115.42201,9.42144,-0.04005
115.52201,9.42144,-0.04003
115.62201,9.42144,-0.03998
115.72201,9.42144,-0.04002
115.82201,9.42144,-0.03998
115.92201,9.42144,-0.03998
116.02201,9.42144,-0.03998
116.12201,9.42144,-0.03997
116.22201,9.42144,-0.03993
116.32201,9.42144,-0.03991
116.42201,9.42144,-0.03987
116.52201,9.42144,-0.03987
116.62201,9.42144,-0.03986
116.72201,9.42144,-0.03983
116.82201,9.42144,-0.03981
116.92201,9.42144,-0.03981
117.02201,9.42144,-0.03976
117.12201,9.42144,-0.03977
117.22201,9.42144,-0.03971
117.32201,9.42144,-0.03974
117.42201,9.42144,-0.03973
117.52201,9.42144,-0.03971
117.62201,9.42144,-0.03969
117.72201,9.42144,-0.03965
117.82201,9.42144,-0.03965
117.92201,9.42144,-0.03966
118.02201,9.42144,-0.03963
118.12201,9.42144,-0.03962
118.22201,9.42144,-0.03960
118.32201,9.42144,-0.03955
118.42201,9.42144,-0.03955
118.52201,9.42144,-0.03956
118.62201,9.42144,-0.03951
118.72201,9.42144,-0.03951
118.82201,9.42144,-0.03948
118.92201,9.42144,-0.03946
119.02201,9.42144,-0.03944
119.12201,9.42144,-0.03941
119.22201,9.42144,-0.03940
119.32201,9.42144,-0.03941
119.42201,9.42144,-0.03939
119.52201,9.42144,-0.03941
119.62201,9.42144,-0.03938
119.72201,9.42144,-0.03933
119.82201,9.42144,-0.03931
119.92201,9.42144,-0.03930
120.02201,9.42144,-0.03931
120.12201,9.42144,-0.03928
120.22201,9.42144,-0.03925
120.32201,9.42144,-0.03925
120.42201,9.42144,-0.03927
120.52201,9.42144,-0.03922
120.62201,9.42144,-0.03916
120.72201,9.42144,-0.03917
120.82201,9.42144,-0.03913
120.92201,9.42144,-0.03913
121.02201,9.42144,-0.03912
121.12201,9.42144,-0.03911
121.22201,9.42144,-0.03909
121.32201,9.42144,-0.03910
121.42201,9.42144,-0.03905
121.52201,9.42144,-0.03904
121.62201,9.42144,-0.03902
121.72201,9.42144,-0.03900
121.82201,9.42144,-0.03900
121.92201,9.42144,-0.03899
122.02201,9.42144,-0.03899
122.12201,9.42144,-0.03893
122.22201,9.42144,-0.03893
122.32201,9.42144,-0.03895
122.42201,9.42144,-0.03890
122.52201,9.42144,-0.03893
122.62201,9.42144,-0.03893
122.72201,9.42144,-0.03889
122.82201,9.42144,-0.03887
122.92201,9.42144,-0.03884
123.02201,9.42144,-0.03885
123.12201,9.42144,-0.03879
123.22201,9.42144,-0.03879
123.32201,9.42144,-0.03879
123.42201,9.42144,-0.03879
123.52201,9.42144,-0.03879
123.62201,9.42144,-0.03877
123.72201,9.42144,-0.03876
123.82201,9.42144,-0.03872
123.92201,9.42144,-0.03873
124.02201,9.42144,-0.03872
124.12201,9.42144,-0.03866
124.22201,9.42144,-0.03868
124.32201,9.42144,-0.03865
124.42201,9.42144,-0.03863
124.52201,9.42144,-0.03864
124.62201,9.42144,-0.03857
124.72201,9.42144,-0.03859
124.82201,9.42144,-0.03857
124.92201,9.42144,-0.03857
125.02201,9.42144,-0.03854
125.12201,9.42144,-0.03857
125.22201,9.42144,-0.03850
125.32201,9.42144,-0.03849
125.42201,9.42144,-0.03848
125.52201,9.42144,-0.03850
125.62201,9.42144,-0.03844
125.72201,9.42144,-0.03845
125.82201,9.42144,-0.03841
125.92201,9.42144,-0.03841
126.02201,9.42144,-0.03837
126.12201,9.42144,-0.03835
126.22201,9.42144,-0.03834
126.32201,9.42144,-0.03834
126.42201,9.42144,-0.03833
126.52201,9.42144,-0.03833
126.62201,9.42144,-0.03829
126.72201,9.42144,-0.03830
126.82201,9.42144,-0.03826
126.92201,9.42144,-0.03826
127.02201,9.42144,-0.03822
127.12201,9.42144,-0.03822
127.22201,9.42144,-0.03821
127.32201,9.42144,-0.03819
127.42201,9.42144,-0.03816
127.52201,9.42144,-0.03817
127.62201,9.42144,-0.03817
127.72201,9.42144,-0.03815
127.82201,9.42144,-0.03810
127.92201,9.42144,-0.03811
128.02201,9.42144,-0.03809
128.12201,9.42144,-0.03808
128.22201,9.42144,-0.03807
128.32201,9.42144,-0.03806
128.42201,9.42144,-0.03806
128.52201,9.42144,-0.03804
128.62201,9.42144,-0.03801
128.72201,9.42144,-0.03797
128.82201,9.42144,-0.03799
128.92201,9.42144,-0.03799
129.02201,9.42144,-0.03797
129.12201,9.42144,-0.03795
129.22201,9.42144,-0.03793
129.32201,9.42144,-0.03790
129.42201,9.42144,-0.03790
129.52201,9.42144,-0.03793
129.62201,9.42144,-0.03790
129.72201,9.42144,-0.03789
129.82201,9.42144,-0.03788
129.92201,9.42144,-0.03786
130.02201,9.42144,-0.03783
130.12201,9.42144,-0.03783
130.22201,9.42144,-0.03781
130.32201,9.42144,-0.03778
130.42201,9.42144,-0.03779
130.52201,9.42144,-0.03779
130.62201,9.42144,-0.03776
130.72201,9.42144,-0.03776
130.82201,9.42144,-0.03768
130.92201,9.42144,-0.03774
131.02201,9.42144,-0.03772
131.12201,9.42144,-0.03765
131.22201,9.42144,-0.03766
131.32201,9.42144,-0.03762
131.42201,9.42144,-0.03762
131.52201,9.42144,-0.03762
131.62201,9.42144,-0.03761
131.72201,9.42144,-0.03762
131.82201,9.42144,-0.03757
131.92201,9.42144,-0.03760
132.02201,9.42144,-0.03756
132.12201,9.42144,-0.03752
132.22201,9.42144,-0.03756
132.32201,9.42144,-0.03751
132.42201,9.42144,-0.03750
132.52201,9.42144,-0.03753
132.62201,9.42144,-0.03748
132.72201,9.42144,-0.03749
132.82201,9.42144,-0.03744
132.92201,9.42144,-0.03743
133.02201,9.42144,-0.03742
133.12201,9.42144,-0.03741
133.22201,9.42144,-0.03742
133.32201,9.42144,-0.03740
133.42201,9.42144,-0.03735
133.52201,9.42144,-0.03736
133.62201,9.42144,-0.03736
133.72201,9.42144,-0.03738
133.82201,9.42144,-0.03735
133.92201,9.42144,-0.03733
134.02201,9.42144,-0.03731
134.12201,9.42144,-0.03728
134.22201,9.42144,-0.03729
134.32201,9.42144,-0.03727
134.42201,9.42144,-0.03729
134.52201,9.42144,-0.03724
134.62201,9.42144,-0.03722
134.72201,9.42144,-0.03722
134.82201,9.42144,-0.03721
134.92201,9.42144,-0.03719
135.02201,9.42144,-0.03721
135.12201,9.42144,-0.03717
135.22201,9.42144,-0.03716
135.32201,9.42144,-0.03715
135.42201,9.42144,-0.03712
135.52201,9.42144,-0.03711
135.62201,9.42144,-0.03708
135.72201,9.42144,-0.03709
135.82201,9.42144,-0.03707
135.92201,9.42144,-0.03708
136.02201,9.42144,-0.03704
136.12201,9.42144,-0.03705
136.22201,9.42144,-0.03702
136.32201,9.42144,-0.03705
136.42201,9.42144,-0.03701
136.52201,9.42144,-0.03701
136.62201,9.42144,-0.03695
136.72201,9.42144,-0.03695
136.82201,9.42144,-0.03694
136.92201,9.42144,-0.03692
137.02201,9.42144,-0.03693
137.12201,9.42144,-0.03693
137.22201,9.42144,-0.03689
137.32201,9.42144,-0.03686
137.42201,9.42144,-0.03684
137.52201,9.42144,-0.03689
137.62201,9.42144,-0.03685
137.72201,9.42144,-0.03685
137.82201,9.42144,-0.03683
137.92201,9.42144,-0.03680
138.02201,9.42144,-0.03681
138.12201,9.42144,-0.03676
138.22201,9.42144,-0.03678
138.32201,9.42144,-0.03678
138.42201,9.42144,-0.03676
138.52201,9.42144,-0.03677
138.62201,9.42144,-0.03674
138.72201,9.42144,-0.03670
138.82201,9.42144,-0.03669
138.92201,9.42144,-0.03669
139.02201,9.42144,-0.03668
139.12201,9.42144,-0.03663
139.22201,9.42144,-0.03666
139.32201,9.42144,-0.03665
139.42201,9.42144,-0.03665
139.52201,9.42144,-0.03660
139.62201,9.42144,-0.03659
139.72201,9.42144,-0.03660
139.82201,9.42144,-0.03658
139.92201,9.42144,-0.03653
140.02201,9.42144,-0.03655
140.12201,9.42144,-0.03656
140.22201,9.42144,-0.03654
140.32201,9.42144,-0.03655
140.42201,9.42144,-0.03654
140.52201,9.42144,-0.03653
140.62201,9.42144,-0.03647
140.72201,9.42144,-0.03647
140.82201,9.42144,-0.03648
140.92201,9.42144,-0.03643
141.02201,9.42144,-0.03646
141.12201,9.42144,-0.03640
141.22201,9.42144,-0.03641
141.32201,9.42144,-0.03639
141.42201,9.42144,-0.03641
141.52201,9.42144,-0.03638
141.62201,9.42144,-0.03635
141.72201,9.42144,-0.03635
141.82201,9.42144,-0.03633
141.92201,9.42144,-0.03630
142.02201,9.42144,-0.03632
142.12201,9.42144,-0.03626
142.22201,9.42144,-0.03631
142.32201,9.42144,-0.03632
142.42201,9.42144,-0.03625
142.52201,9.42144,-0.03626
142.62201,9.42144,-0.03624
142.72201,9.42144,-0.03620
142.82201,9.42144,-0.03623
142.92201,9.42144,-0.03622
143.02201,9.42144,-0.03620
143.12201,9.42144,-0.03619
143.22201,9.42144,-0.03616
143.32201,9.42144,-0.03614
143.42201,9.42144,-0.03617
143.52201,9.42144,-0.03612
143.62201,9.42144,-0.03613
143.72201,9.42144,-0.03609
143.82201,9.42144,-0.03610
143.92201,9.42144,-0.03610
144.02201,9.42144,-0.03604
144.12201,9.42144,-0.03606
144.22201,9.42144,-0.03609
144.32201,9.42144,-0.03605
144.42201,9.42144,-0.03603
144.52201,9.42144,-0.03602
144.62201,9.42144,-0.03600
144.72201,9.42144,-0.03600
144.82201,9.42144,-0.03598
144.92201,9.42144,-0.03597
145.02201,9.42144,-0.03600
145.12201,9.42144,-0.03594
145.22201,9.42144,-0.03592
145.32201,9.42144,-0.03592
145.42201,9.42144,-0.03595
145.52201,9.42144,-0.03590
145.62201,9.42144,-0.03590
145.72201,9.42144,-0.03586
145.82201,9.42144,-0.03585
145.92201,9.42144,-0.03587
146.02201,9.42144,-0.03584
146.12201,9.42144,-0.03580
146.22201,9.42144,-0.03579
146.32201,9.42144,-0.03579
146.42201,9.42144,-0.03578
146.52201,9.42144,-0.03580
146.62201,9.42144,-0.03575
146.72201,9.42144,-0.03572
146.82201,9.42144,-0.03575
146.92201,9.42144,-0.03571
147.02201,9.42144,-0.03573
147.12201,9.42144,-0.03572
147.22201,9.42144,-0.03570
147.32201,9.42144,-0.03571
147.42201,9.42144,-0.03564
147.52201,9.42144,-0.03569
147.62201,9.42144,-0.03564
147.72201,9.42144,-0.03564
147.82201,9.42144,-0.03565
147.92201,9.42144,-0.03559
148.02201,9.42144,-0.03564
148.12201,9.42144,-0.03561
148.22201,9.42144,-0.03556
148.32201,9.42144,-0.03561
148.42201,9.42144,-0.03556
148.52201,9.42144,-0.03556
148.62201,9.42144,-0.03553
148.72201,9.42144,-0.03553
148.82201,9.42144,-0.03553
148.92201,9.42144,-0.03545
149.02201,9.42144,-0.03549
149.12201,9.42144,-0.03547
149.22201,9.42144,-0.03549
149.32201,9.42144,-0.03549
149.42201,9.42144,-0.03545
149.52201,9.42144,-0.03545
149.62201,9.42144,-0.03541
149.72201,9.42144,-0.03546
149.82201,9.42144,-0.03542
149.92201,9.42144,-0.03540
150.02201,9.42144,-0.03541
150.12201,9.42144,-0.03540
150.22201,9.42144,-0.03537
150.32201,9.42144,-0.03537
150.42201,9.42144,-0.03538
150.52201,9.42144,-0.03534
150.62201,9.42144,-0.03533
150.72201,9.42144,-0.03527
150.82201,9.42144,-0.03530
150.92201,9.42144,-0.03529
151.02201,9.42144,-0.03529
151.12201,9.42144,-0.03529
151.22201,9.42144,-0.03530
151.32201,9.42144,-0.03529
151.42201,9.42144,-0.03525
151.52201,9.42144,-0.03524
151.62201,9.42144,-0.03521
151.72201,9.42144,-0.03519
151.82201,9.42144,-0.03523
151.92201,9.42144,-0.03524
152.02201,9.42144,-0.03518
152.12201,9.42144,-0.03518
152.22201,9.42144,-0.03519
152.32201,9.42144,-0.03519
152.42201,9.42144,-0.03512
152.52201,9.42144,-0.03513
152.62201,9.42144,-0.03510
152.72201,9.42144,-0.03511
152.82201,9.42144,-0.03512
152.92201,9.42144,-0.03509
153.02201,9.42144,-0.03510
153.12201,9.42144,-0.03507
153.22201,9.42144,-0.03507
153.32201,9.42144,-0.03505
153.42201,9.42144,-0.03504
153.52201,9.42144,-0.03505
153.62201,9.42144,-0.03503
153.72201,9.42144,-0.03501
153.82201,9.42144,-0.03499
153.92201,9.42144,-0.03501
154.02201,9.42144,-0.03500
154.12201,9.42144,-0.03501
154.22201,9.42144,-0.03498
154.32201,9.42144,-0.03496
154.42201,9.42144,-0.03496
154.52201,9.42144,-0.03495
154.62201,9.42144,-0.03495
154.72201,9.42144,-0.03493
154.82201,9.42144,-0.03490
154.92201,9.42144,-0.03493
155.02201,9.42144,-0.03488
155.12201,9.42144,-0.03492
155.22201,9.42144,-0.03487
155.32201,9.42144,-0.03485
155.42201,9.42144,-0.03485
155.52201,9.42144,-0.03484
155.62201,9.42144,-0.03485
155.72201,9.42144,-0.03484
155.82201,9.42144,-0.03480
155.92201,9.42144,-0.03482
156.02201,9.42144,-0.03481
156.12201,9.42144,-0.03479
156.22201,9.42144,-0.03477
156.32201,9.42144,-0.03475
156.42201,9.42144,-0.03474
156.52201,9.42144,-0.03475
156.62201,9.42144,-0.03475
156.72201,9.42144,-0.03472
156.82201,9.42144,-0.03472
156.92201,9.42144,-0.03471
157.02201,9.42144,-0.03469
157.12201,9.42144,-0.03471
157.22201,9.42144,-0.03472
157.32201,9.42144,-0.03468
157.42201,9.42144,-0.03466
157.52201,9.42144,-0.03465
157.62201,9.42144,-0.03465
157.72201,9.42144,-0.03462
157.82201,9.42144,-0.03463
157.92201,9.42144,-0.03461
158.02201,9.42144,-0.03461
158.12201,9.42144,-0.03459
158.22201,9.42144,-0.03460
158.32201,9.42144,-0.03458
158.42201,9.42144,-0.03455
158.52201,9.42144,-0.03458
158.62201,9.42144,-0.03456
158.72201,9.42144,-0.03456
158.82201,9.42144,-0.03452
158.92201,9.42144,-0.03450
159.02201,9.42144,-0.03451
159.12201,9.42144,-0.03451
159.22201,9.42144,-0.03451
159.32201,9.42144,-0.03450
159.42201,9.42144,-0.03447
159.52201,9.42144,-0.03446
159.62201,9.42144,-0.03444
159.72201,9.42144,-0.03446
159.82201,9.42144,-0.03442
159.92201,9.42144,-0.03444
160.02201,9.42144,-0.03444
160.12201,9.42144,-0.03440
160.22201,9.42144,-0.03438
160.32201,9.42144,-0.03438
160.42201,9.42144,-0.03440
160.52201,9.42144,-0.03441
160.62201,9.42144,-0.03437
160.72201,9.42144,-0.03436
160.82201,9.42144,-0.03434
160.92201,9.42144,-0.03435
161.02201,9.42144,-0.03438
161.12201,9.42144,-0.03432
161.22201,9.42144,-0.03431
161.32201,9.42144,-0.03431
161.42201,9.42144,-0.03430
161.52201,9.42144,-0.03429
161.62201,9.42144,-0.03428
161.72201,9.42144,-0.03426
161.82201,9.42144,-0.03428
161.92201,9.42144,-0.03426
162.02201,9.42144,-0.03424
162.12201,9.42144,-0.03423
162.22201,9.42144,-0.03423
162.32201,9.42144,-0.03424
162.42201,9.42144,-0.03423
162.52201,9.42144,-0.03421
162.62201,9.42144,-0.03417
162.72201,9.42144,-0.03418
162.82201,9.42144,-0.03418
162.92201,9.42144,-0.03417
163.02201,9.42144,-0.03417
163.12201,9.42144,-0.03413
163.22201,9.42144,-0.03416
163.32201,9.42144,-0.03414
163.42201,9.42144,-0.03411
163.52201,9.42144,-0.03409
163.62201,9.42144,-0.03411
163.72201,9.42144,-0.03413
163.82201,9.42144,-0.03407
163.92201,9.42144,-0.03410
164.02201,9.42144,-0.03404
164.12201,9.42144,-0.03403
164.22201,9.42144,-0.03406
164.32201,9.42144,-0.03405
164.42201,9.42144,-0.03402
164.52201,9.42144,-0.03402
164.62201,9.42144,-0.03401
164.72201,9.42144,-0.03399
164.82201,9.42144,-0.03396
164.92201,9.42144,-0.03400
165.02201,9.42144,-0.03397
165.12201,9.42144,-0.03397
165.22201,9.42144,-0.03398
165.32201,9.42144,-0.03393
165.42201,9.42144,-0.03394
165.52201,9.42144,-0.03395
165.62201,9.42144,-0.03394
165.72201,9.42144,-0.03391
165.82201,9.42144,-0.03393
165.92201,9.42144,-0.03393
166.02201,9.42144,-0.03388
166.12201,9.42144,-0.03387
166.22201,9.42144,-0.03386
166.32201,9.42144,-0.03387
166.42201,9.42144,-0.03389
166.52201,9.42144,-0.03384
166.62201,9.42144,-0.03385
166.72201,9.42144,-0.03385
166.82201,9.42144,-0.03383
166.92201,9.42144,-0.03379
167.02201,9.42144,-0.03383
167.12201,9.42144,-0.03378
167.22201,9.42144,-0.03379
167.32201,9.42144,-0.03376
167.42201,9.42144,-0.03378
167.52201,9.42144,-0.03378
167.62201,9.42144,-0.03374
167.72201,9.42144,-0.03373
167.82201,9.42144,-0.03372
167.92201,9.42144,-0.03372
168.02201,9.42144,-0.03369
168.12201,9.42144,-0.03372
168.22201,9.42144,-0.03369
168.32201,9.42144,-0.03367
168.42201,9.42144,-0.03365
168.52201,9.42144,-0.03370
168.62201,9.42144,-0.03362
168.72201,9.42144,-0.03366
168.82201,9.42144,-0.03365
168.92201,9.42144,-0.03362
169.02201,9.42144,-0.03363
169.12201,9.42144,-0.03363
169.22201,9.42144,-0.03360
169.32201,9.42144,-0.03362
169.42201,9.42144,-0.03363
169.52201,9.42144,-0.03361
169.62201,9.42144,-0.03358
169.72201,9.42144,-0.03358
169.82201,9.42144,-0.03359
169.92201,9.42144,-0.03356
170.02201,9.42144,-0.03354
170.12201,9.42144,-0.03355
170.22201,9.42144,-0.03356
170.32201,9.42144,-0.03356
170.42201,9.42144,-0.03352
170.52201,9.42144,-0.03353
170.62201,9.42144,-0.03356
170.72201,9.42144,-0.03353
170.82201,9.42144,-0.03351
170.92201,9.42144,-0.03347
171.02201,9.42144,-0.03346
171.12201,9.42144,-0.03345
171.22201,9.42144,-0.03344
171.32201,9.42144,-0.03348
171.42201,9.42144,-0.03346
171.52201,9.42144,-0.03341
171.62201,9.42144,-0.03344
171.72201,9.42144,-0.03344
171.82201,9.42144,-0.03343
171.92201,9.42144,-0.03343
172.02201,9.42144,-0.03343
172.12201,9.42144,-0.03341
172.22201,9.42144,-0.03339
172.32201,9.42144,-0.03339
172.42201,9.42144,-0.03340
172.52201,9.42144,-0.03340
172.62201,9.42144,-0.03339
172.72201,9.42144,-0.03339
172.82201,9.42144,-0.03335
172.92201,9.42144,-0.03335
173.02201,9.42144,-0.03335
173.12201,9.42144,-0.03336
173.22201,9.42144,-0.03332
173.32201,9.42144,-0.03332
173.42201,9.42144,-0.03333
173.52201,9.42144,-0.03330
173.62201,9.42144,-0.03331
173.72201,9.42144,-0.03329
173.82201,9.42144,-0.03330
173.92201,9.42144,-0.03328
174.02201,9.42144,-0.03330
174.12201,9.42144,-0.03328
174.22201,9.42144,-0.03326
174.32201,9.42144,-0.03326
174.42201,9.42144,-0.03326
174.52201,9.42144,-0.03330
174.62201,9.42144,-0.03323
174.72201,9.42144,-0.03322
174.82201,9.42144,-0.03323
174.92201,9.42144,-0.03323
175.02201,9.42144,-0.03322
175.12201,9.42144,-0.03317
175.22201,9.42144,-0.03324
175.32201,9.42144,-0.03318
175.42201,9.42144,-0.03318
175.52201,9.42144,-0.03318
175.62201,9.42144,-0.03313
175.72201,9.42144,-0.03317
175.82201,9.42144,-0.03314
175.92201,9.42144,-0.03315
176.02201,9.42144,-0.03314
176.12201,9.42144,-0.03312
176.22201,9.42144,-0.03309
176.32201,9.42144,-0.03309
176.42201,9.42144,-0.03307
176.52201,9.42144,-0.03307
176.62201,9.42144,-0.03303
176.72201,9.42144,-0.03309
176.82201,9.42144,-0.03304
176.92201,9.42144,-0.03306
177.02201,9.42144,-0.03302
177.12201,9.42144,-0.03303
177.22201,9.42144,-0.03303
177.32201,9.42144,-0.03299
177.42201,9.42144,-0.03299
177.52201,9.42144,-0.03300
177.62201,9.42144,-0.03298
177.72201,9.42144,-0.03301
177.82201,9.42144,-0.03296
177.92201,9.42144,-0.03297
178.02201,9.42144,-0.03298
178.12201,9.42144,-0.03294
178.22201,9.42144,-0.03293
178.32201,9.42144,-0.03293
178.42201,9.42144,-0.03289
178.52201,9.42144,-0.03293
178.62201,9.42144,-0.03292
178.72201,9.42144,-0.03288
178.82201,9.42144,-0.03289
178.92201,9.42144,-0.03288
179.02201,9.42144,-0.03288
179.12201,9.42144,-0.03286
179.22201,9.42144,-0.03289
179.32201,9.42144,-0.03283
179.42201,9.42144,-0.03283
179.52201,9.42144,-0.03282
179.62201,9.42144,-0.03277
179.72201,9.42144,-0.03283
179.82201,9.42144,-0.03281
179.92201,9.42144,-0.03279
180.02201,9.42144,-0.03281
180.12201,9.42144,-0.03278
180.22201,9.42144,-0.03279
180.32201,9.42144,-0.03278
180.42201,9.42144,-0.03278
180.52201,9.42144,-0.03276
180.62201,9.42144,-0.03275
180.72201,9.42144,-0.03276
180.82201,9.42144,-0.03275
180.92201,9.42144,-0.03273
181.02201,9.42144,-0.03272
181.12201,9.42144,-0.03271
181.22201,9.42144,-0.03268
181.32201,9.42144,-0.03272
181.42201,9.42144,-0.03268
181.52201,9.42144,-0.03270
181.62201,9.42144,-0.03267
181.72201,9.42144,-0.03264
181.82201,9.42144,-0.03264
181.92201,9.42144,-0.03269
182.02201,9.42144,-0.03267
182.12201,9.42144,-0.03262
182.22201,9.42144,-0.03266
182.32201,9.42144,-0.03264
182.42201,9.42144,-0.03260
182.52201,9.42144,-0.03263
182.62201,9.42144,-0.03262
182.72201,9.42144,-0.03260
182.82201,9.42144,-0.03258
182.92201,9.42144,-0.03260
183.02201,9.42144,-0.03257
183.12201,9.42144,-0.03257
183.22201,9.42144,-0.03254
183.32201,9.42144,-0.03255
183.42201,9.42144,-0.03255
183.52201,9.42144,-0.03257
183.62201,9.42144,-0.03249
183.72201,9.42144,-0.03252
183.82201,9.42144,-0.03251
183.92201,9.42144,-0.03252
184.02201,9.42144,-0.03248
184.12201,9.42144,-0.03249
184.22201,9.42144,-0.03247
184.32201,9.42144,-0.03248
184.42201,9.42144,-0.03249
184.52201,9.42144,-0.03245
184.62201,9.42144,-0.03246
184.72201,9.42144,-0.03244
184.82201,9.42144,-0.03245
184.92201,9.42144,-0.03242
185.02201,9.42144,-0.03240
185.12201,9.42144,-0.03239
185.22201,9.42144,-0.03237
185.32201,9.42144,-0.03238
185.42201,9.42144,-0.03239
185.52201,9.42144,-0.03235
185.62201,9.42144,-0.03234
185.72201,9.42144,-0.03232
185.82201,9.42144,-0.03232
185.92201,9.42144,-0.03233
186.02201,9.42144,-0.03232
186.12201,9.42144,-0.03230
186.22201,9.42144,-0.03232
186.32201,9.42144,-0.03226
186.42201,9.42144,-0.03225
186.52201,9.42144,-0.03227
186.62201,9.42144,-0.03229
186.72201,9.42144,-0.03228
186.82201,9.42144,-0.03227
186.92201,9.42144,-0.03227
187.02201,9.42144,-0.03225
187.12201,9.42144,-0.03222
187.22201,9.42144,-0.03221
187.32201,9.42144,-0.03221
187.42201,9.42144,-0.03221
187.52201,9.42144,-0.03222
187.62201,9.42144,-0.03222
187.72201,9.42144,-0.03219
187.82201,9.42144,-0.03217
187.92201,9.42144,-0.03217
188.02201,9.42144,-0.03217
188.12201,9.42144,-0.03220
188.22201,9.42144,-0.03221
188.32201,9.42144,-0.03215
188.42201,9.42144,-0.03217
188.52201,9.42144,-0.03216
188.62201,9.42144,-0.03214
188.72201,9.42144,-0.03215
188.82201,9.42144,-0.03215
188.92201,9.42144,-0.03214
189.02201,9.42144,-0.03211
189.12201,9.42144,-0.03209
189.22201,9.42144,-0.03211
189.32201,9.42144,-0.03213
189.42201,9.42144,-0.03208
189.52201,9.42144,-0.03211
189.62201,9.42144,-0.03209
189.72201,9.42144,-0.03206
189.82201,9.42144,-0.03208
189.92201,9.42144,-0.03207
190.02201,9.42144,-0.03207
