Time,Extension,Load
(sec),(mm),(N)
0.00000,9.93936,0.00006
0.10000,9.93936,0.00005
0.20000,9.93665,-0.00019
0.30000,9.92811,-0.00119
0.40000,9.92102,-0.00213
0.50000,9.91540,-0.00291
0.60000,9.91019,-0.00354
0.70000,9.90477,-0.00428
0.80000,9.90019,-0.00492
0.90000,9.89519,-0.00558
1.00000,9.88998,-0.00642
1.10000,9.88498,-0.00721
1.20000,9.87998,-0.00803
1.30000,9.87498,-0.00887
1.40000,9.87019,-0.00971
1.50000,9.86477,-0.01059
1.60000,9.86019,-0.01147
1.70000,9.85498,-0.01249
1.80000,9.84998,-0.01341
1.90000,9.84498,-0.01441
2.00000,9.83998,-0.01544
2.10000,9.83519,-0.01644
2.20000,9.83040,-0.01741
2.30000,9.82498,-0.01853
2.40000,9.82040,-0.01956
2.50000,9.81498,-0.02074
2.60000,9.80998,-0.02190
2.70000,9.80498,-0.02309
2.80000,9.79977,-0.02434
2.90000,9.79477,-0.02553
3.00000,9.78998,-0.02665
3.10000,9.78498,-0.02789
3.20000,9.78019,-0.02909
3.30000,9.77498,-0.03036
3.40000,9.76977,-0.03168
3.50000,9.76436,-0.03308
3.60000,9.75936,-0.03451
3.70000,9.75457,-0.03573
3.80000,9.74977,-0.03701
3.90000,9.74477,-0.03834
4.00000,9.73998,-0.03969
4.10000,9.73498,-0.04109
4.20000,9.72977,-0.04257
4.30000,9.72436,-0.04412
4.40000,9.71915,-0.04562
4.50000,9.71457,-0.04707
4.60000,9.70978,-0.04842
4.70000,9.70498,-0.04980
4.80000,9.70019,-0.05118
4.90000,9.69498,-0.05282
5.00000,9.68998,-0.05440
5.10000,9.68457,-0.05611
5.20000,9.67936,-0.05767
5.30000,9.67457,-0.05920
5.40000,9.66978,-0.06066
5.50000,9.66498,-0.06231
5.60000,9.66019,-0.06376
5.70000,9.65478,-0.06557
5.80000,9.64977,-0.06720
5.90000,9.64477,-0.06895
6.00000,9.63978,-0.07056
6.10000,9.63498,-0.07219
6.20000,9.63019,-0.07380
6.30000,9.62519,-0.07557
6.40000,9.62040,-0.07710
6.50000,9.61477,-0.07910
6.60000,9.60978,-0.08092
6.70000,9.60478,-0.08279
6.80000,9.59978,-0.08446
6.90000,9.59519,-0.08614
7.00000,9.58998,-0.08787
7.10000,9.58498,-0.08980
7.20000,9.57998,-0.09146
7.30000,9.57436,-0.09367
7.40000,9.56915,-0.09573
7.50000,9.56436,-0.09749
7.60000,9.55957,-0.09928
7.70000,9.55478,-0.10114
7.80000,9.54998,-0.10294
7.90000,9.54498,-0.10487
8.00000,9.54019,-0.10662
8.10000,9.53457,-0.10890
8.20000,9.52936,-0.11105
8.30000,9.52457,-0.11293
8.40000,9.51957,-0.11493
8.50000,9.51457,-0.11683
8.60000,9.50978,-0.11872
8.70000,9.50478,-0.12084
8.80000,9.49998,-0.12266
8.90000,9.49498,-0.12483
9.00000,9.48978,-0.12700
9.10000,9.48457,-0.12911
9.20000,9.47957,-0.13126
9.30000,9.47478,-0.13332
9.40000,9.46957,-0.13550
9.50000,9.46478,-0.13773
9.60000,9.45998,-0.13959
9.70000,9.45478,-0.14186
9.80000,9.44957,-0.14408
9.90000,9.44457,-0.14633
10.00000,9.43998,-0.14826
10.00800,9.43957,-0.14841
10.01000,9.43957,-0.14845
10.11000,9.43832,-0.14867
10.21000,9.43811,-0.14766
10.31000,9.43811,-0.14668
10.41000,9.43811,-0.14580
10.51000,9.43811,-0.14494
10.61000,9.43811,-0.14417
10.71000,9.43811,-0.14344
10.81000,9.43811,-0.14275
10.91000,9.43811,-0.14206
11.01000,9.43811,-0.14144
11.11000,9.43811,-0.14082
11.21000,9.43853,-0.14020
11.31000,9.43853,-0.13955
11.41000,9.43853,-0.13895
11.51000,9.43853,-0.13834
11.61000,9.43873,-0.13776
11.71000,9.43873,-0.13719
11.81000,9.43873,-0.13663
11.91000,9.43894,-0.13611
12.01000,9.43894,-0.13553
12.11000,9.43894,-0.13499
12.21000,9.43915,-0.13449
12.31000,9.43915,-0.13402
12.41000,9.43915,-0.13351
12.51000,9.43915,-0.13302
12.61000,9.43936,-0.13255
12.71000,9.43936,-0.13205
12.81000,9.43936,-0.13161
12.91000,9.43936,-0.13114
13.01000,9.43936,-0.13074
13.11000,9.43936,-0.13028
13.21000,9.43957,-0.12984
13.31000,9.43957,-0.12945
13.41000,9.43957,-0.12906
13.51000,9.43957,-0.12866
13.61000,9.43957,-0.12823
13.71000,9.43957,-0.12793
13.81000,9.43957,-0.12751
13.91000,9.43957,-0.12713
14.01000,9.43957,-0.12674
14.11000,9.43957,-0.12638
14.21000,9.43957,-0.12602
14.31000,9.43957,-0.12568
14.41000,9.43957,-0.12536
14.51000,9.43957,-0.12494
14.61000,9.43957,-0.12460
14.71000,9.43957,-0.12426
14.81000,9.43957,-0.12388
14.91000,9.43957,-0.12359
15.01000,9.43957,-0.12328
15.11000,9.43957,-0.12290
15.21000,9.43957,-0.12259
15.31000,9.43957,-0.12224
15.41000,9.43957,-0.12191
15.51000,9.43957,-0.12156
15.61000,9.43957,-0.12121
15.71000,9.43957,-0.12095
15.81000,9.43957,-0.12059
15.91000,9.43957,-0.12030
16.01000,9.43957,-0.11998
16.11000,9.43957,-0.11968
16.21000,9.43957,-0.11941
16.31000,9.43957,-0.11908
16.41000,9.43957,-0.11877
16.51000,9.43957,-0.11848
16.61000,9.43957,-0.11816
16.71000,9.43957,-0.11790
16.81000,9.43957,-0.11758
16.91000,9.43957,-0.11730
17.01000,9.43957,-0.11703
17.11000,9.43957,-0.11676
17.21000,9.43957,-0.11645
17.31000,9.43957,-0.11617
17.41000,9.43957,-0.11589
17.51000,9.43957,-0.11563
17.61000,9.43957,-0.11536
17.71000,9.43957,-0.11509
17.81000,9.43957,-0.11480
17.91000,9.43957,-0.11455
18.01000,9.43957,-0.11427
18.11000,9.43957,-0.11403
18.21000,9.43957,-0.11377
18.31000,9.43957,-0.11351
18.41000,9.43957,-0.11324
18.51000,9.43957,-0.11298
18.61000,9.43957,-0.11273
18.71000,9.43957,-0.11250
18.81000,9.43957,-0.11222
18.91000,9.43957,-0.11197
19.01000,9.43957,-0.11177
19.11000,9.43957,-0.11150
19.21000,9.43957,-0.11126
19.31000,9.43957,-0.11102
19.41000,9.43957,-0.11079
19.51000,9.43957,-0.11055
19.61000,9.43957,-0.11027
19.71000,9.43957,-0.11008
19.81000,9.43957,-0.10983
19.91000,9.43957,-0.10961
20.01000,9.43957,-0.10938
20.11000,9.43957,-0.10915
20.21000,9.43957,-0.10893
20.31000,9.43957,-0.10872
20.41000,9.43957,-0.10846
20.51000,9.43957,-0.10822
20.61000,9.43957,-0.10802
20.71000,9.43957,-0.10782
20.81000,9.43957,-0.10761
20.91000,9.43957,-0.10743
21.01000,9.43957,-0.10717
21.11000,9.43957,-0.10697
21.21000,9.43957,-0.10676
21.31000,9.43957,-0.10649
21.41000,9.43957,-0.10638
21.51000,9.43957,-0.10615
21.61000,9.43957,-0.10593
21.71000,9.43957,-0.10572
21.81000,9.43957,-0.10546
21.91000,9.43957,-0.10530
22.01000,9.43957,-0.10507
22.11000,9.43957,-0.10489
22.21000,9.43957,-0.10469
22.31000,9.43957,-0.10448
22.41000,9.43957,-0.10428
22.51000,9.43957,-0.10409
22.61000,9.43957,-0.10388
22.71000,9.43957,-0.10372
22.81000,9.43957,-0.10352
22.91000,9.43957,-0.10330
23.01000,9.43957,-0.10311
23.11000,9.43957,-0.10293
23.21000,9.43957,-0.10275
23.31000,9.43957,-0.10254
23.41000,9.43957,-0.10234
23.51000,9.43957,-0.10219
23.61000,9.43957,-0.10198
23.71000,9.43957,-0.10181
23.81000,9.43957,-0.10156
23.91000,9.43957,-0.10145
24.01000,9.43957,-0.10125
24.11000,9.43957,-0.10108
24.21000,9.43957,-0.10091
24.31000,9.43957,-0.10071
24.41000,9.43957,-0.10052
24.51000,9.43957,-0.10034
24.61000,9.43957,-0.10016
24.71000,9.43957,-0.10000
24.81000,9.43957,-0.09977
24.91000,9.43957,-0.09959
25.01000,9.43957,-0.09945
25.11000,9.43957,-0.09928
25.21000,9.43957,-0.09911
25.31000,9.43957,-0.09893
25.41000,9.43957,-0.09878
25.51000,9.43957,-0.09858
25.61000,9.43957,-0.09845
25.71000,9.43957,-0.09824
25.81000,9.43957,-0.09803
25.91000,9.43957,-0.09793
26.01000,9.43957,-0.09774
26.11000,9.43957,-0.09754
26.21000,9.43957,-0.09740
26.31000,9.43957,-0.09722
26.41000,9.43957,-0.09704
26.51000,9.43957,-0.09687
26.61000,9.43957,-0.09670
26.71000,9.43957,-0.09658
26.81000,9.43957,-0.09640
26.91000,9.43957,-0.09623
27.01000,9.43957,-0.09604
27.11000,9.43957,-0.09592
27.21000,9.43957,-0.09577
27.31000,9.43957,-0.09559
27.41000,9.43957,-0.09545
27.51000,9.43957,-0.09528
27.61000,9.43957,-0.09513
27.71000,9.43957,-0.09502
27.81000,9.43957,-0.09486
27.91000,9.43957,-0.09467
28.01000,9.43957,-0.09459
28.11000,9.43957,-0.09439
28.21000,9.43957,-0.09423
28.31000,9.43957,-0.09407
28.41000,9.43957,-0.09393
28.51000,9.43957,-0.09377
28.61000,9.43957,-0.09366
28.71000,9.43957,-0.09349
28.81000,9.43957,-0.09332
28.91000,9.43957,-0.09320
29.01000,9.43957,-0.09308
29.11000,9.43957,-0.09289
29.21000,9.43957,-0.09274
29.31000,9.43957,-0.09263
29.41000,9.43957,-0.09244
29.51000,9.43957,-0.09234
29.61000,9.43957,-0.09221
29.71000,9.43957,-0.09204
29.81000,9.43957,-0.09190
29.91000,9.43957,-0.09175
30.01000,9.43957,-0.09160
30.11000,9.43957,-0.09151
30.21000,9.43957,-0.09135
30.31000,9.43957,-0.09116
30.41000,9.43957,-0.09108
30.51000,9.43957,-0.09096
30.61000,9.43957,-0.09080
30.71000,9.43957,-0.09065
30.81000,9.43957,-0.09048
30.91000,9.43957,-0.09034
31.01000,9.43957,-0.09026
31.11000,9.43957,-0.09007
31.21000,9.43957,-0.08996
31.31000,9.43957,-0.08984
31.41000,9.43957,-0.08971
31.51000,9.43957,-0.08955
31.61000,9.43957,-0.08942
31.71000,9.43957,-0.08930
31.81000,9.43957,-0.08918
31.91000,9.43957,-0.08904
32.01000,9.43957,-0.08890
32.11000,9.43957,-0.08874
32.21000,9.43957,-0.08866
32.31000,9.43957,-0.08850
32.41000,9.43957,-0.08835
32.51000,9.43957,-0.08829
32.61000,9.43957,-0.08817
32.71000,9.43957,-0.08802
32.81000,9.43957,-0.08789
32.91000,9.43957,-0.08775
33.01000,9.43957,-0.08759
33.11000,9.43957,-0.08751
33.21000,9.43957,-0.08740
33.31000,9.43957,-0.08724
33.41000,9.43957,-0.08711
33.51000,9.43957,-0.08705
33.61000,9.43957,-0.08692
33.71000,9.43957,-0.08676
33.81000,9.43957,-0.08665
33.91000,9.43957,-0.08653
34.01000,9.43957,-0.08639
34.11000,9.43957,-0.08627
34.21000,9.43957,-0.08616
34.31000,9.43957,-0.08603
34.41000,9.43957,-0.08595
34.51000,9.43957,-0.08579
34.61000,9.43957,-0.08568
34.71000,9.43957,-0.08561
34.81000,9.43957,-0.08547
34.91000,9.43957,-0.08531
35.01000,9.43957,-0.08521
35.11000,9.43957,-0.08512
35.21000,9.43957,-0.08497
35.31000,9.43957,-0.08487
35.41000,9.43957,-0.08477
35.51000,9.43957,-0.08465
35.61000,9.43957,-0.08455
35.71000,9.43957,-0.08444
35.81000,9.43957,-0.08429
35.91000,9.43957,-0.08420
36.01000,9.43957,-0.08406
36.11000,9.43957,-0.08399
36.21000,9.43957,-0.08387
36.31000,9.43957,-0.08371
36.41000,9.43957,-0.08365
36.51000,9.43957,-0.08352
36.61000,9.43957,-0.08341
36.71000,9.43957,-0.08328
36.81000,9.43957,-0.08321
36.91000,9.43957,-0.08309
37.01000,9.43957,-0.08297
37.11000,9.43957,-0.08285
37.21000,9.43957,-0.08272
37.31000,9.43957,-0.08264
37.41000,9.43957,-0.08255
37.51000,9.43957,-0.08244
37.61000,9.43957,-0.08232
37.71000,9.43957,-0.08219
37.81000,9.43957,-0.08208
37.91000,9.43957,-0.08203
38.01000,9.43957,-0.08190
38.11000,9.43957,-0.08179
38.21000,9.43957,-0.08166
38.31000,9.43957,-0.08156
38.41000,9.43957,-0.08148
38.51000,9.43957,-0.08138
38.61000,9.43957,-0.08126
38.71000,9.43957,-0.08117
38.81000,9.43957,-0.08105
38.91000,9.43957,-0.08094
39.01000,9.43957,-0.08081
39.11000,9.43957,-0.08075
39.21000,9.43957,-0.08064
39.31000,9.43957,-0.08056
39.41000,9.43957,-0.08047
39.51000,9.43957,-0.08034
39.61000,9.43957,-0.08027
39.71000,9.43957,-0.08015
39.81000,9.43957,-0.08004
39.91000,9.43957,-0.07994
40.01000,9.43957,-0.07985
40.11000,9.43957,-0.07977
40.21000,9.43957,-0.07968
40.31000,9.43957,-0.07955
40.41000,9.43957,-0.07946
40.51000,9.43957,-0.07937
40.61000,9.43957,-0.07930
40.71000,9.43957,-0.07922
40.81000,9.43957,-0.07909
40.91000,9.43957,-0.07904
41.01000,9.43957,-0.07891
41.11000,9.43957,-0.07881
41.21000,9.43957,-0.07873
41.31000,9.43957,-0.07861
41.41000,9.43957,-0.07855
41.51000,9.43957,-0.07847
41.61000,9.43957,-0.07834
41.71000,9.43957,-0.07826
41.81000,9.43957,-0.07819
41.91000,9.43957,-0.07805
42.01000,9.43957,-0.07799
42.11000,9.43957,-0.07794
42.21000,9.43957,-0.07784
42.31000,9.43957,-0.07776
42.41000,9.43957,-0.07761
42.51000,9.43957,-0.07755
42.61000,9.43957,-0.07747
42.71000,9.43957,-0.07737
42.81000,9.43957,-0.07726
42.91000,9.43957,-0.07721
43.01000,9.43957,-0.07713
43.11000,9.43957,-0.07703
43.21000,9.43957,-0.07695
43.31000,9.43957,-0.07687
43.41000,9.43957,-0.07680
43.51000,9.43957,-0.07672
43.61000,9.43957,-0.07664
43.71000,9.43957,-0.07652
43.81000,9.43957,-0.07645
43.91000,9.43957,-0.07634
44.01000,9.43957,-0.07627
44.11000,9.43957,-0.07619
44.21000,9.43957,-0.07610
44.31000,9.43957,-0.07600
44.41000,9.43957,-0.07595
44.51000,9.43957,-0.07586
44.61000,9.43957,-0.07579
44.71000,9.43957,-0.07568
44.81000,9.43957,-0.07562
44.91000,9.43957,-0.07549
45.01000,9.43957,-0.07539
45.11000,9.43957,-0.07532
45.21000,9.43957,-0.07525
45.31000,9.43957,-0.07518
45.41000,9.43957,-0.07513
45.51000,9.43957,-0.07504
45.61000,9.43957,-0.07493
45.71000,9.43957,-0.07485
45.81000,9.43957,-0.07478
45.91000,9.43957,-0.07469
46.01000,9.43957,-0.07462
46.11000,9.43957,-0.07456
46.21000,9.43957,-0.07445
46.31000,9.43957,-0.07437
46.41000,9.43957,-0.07428
46.51000,9.43957,-0.07423
46.61000,9.43957,-0.07411
46.71000,9.43957,-0.07408
46.81000,9.43957,-0.07398
46.91000,9.43957,-0.07388
47.01000,9.43957,-0.07380
47.11000,9.43957,-0.07373
47.21000,9.43957,-0.07366
47.31000,9.43957,-0.07359
47.41000,9.43957,-0.07351
47.51000,9.43957,-0.07344
47.61000,9.43957,-0.07336
47.71000,9.43957,-0.07326
47.81000,9.43957,-0.07317
47.91000,9.43957,-0.07310
48.01000,9.43957,-0.07301
48.11000,9.43957,-0.07297
48.21000,9.43957,-0.07288
48.31000,9.43957,-0.07282
48.41000,9.43957,-0.07272
48.51000,9.43957,-0.07262
48.61000,9.43957,-0.07260
48.71000,9.43957,-0.07250
48.81000,9.43957,-0.07241
48.91000,9.43957,-0.07236
49.01000,9.43957,-0.07226
49.11000,9.43957,-0.07218
49.21000,9.43957,-0.07210
49.31000,9.43957,-0.07205
49.41000,9.43957,-0.07200
49.51000,9.43957,-0.07189
49.61000,9.43957,-0.07184
49.71000,9.43957,-0.07176
49.81000,9.43957,-0.07170
49.91000,9.43957,-0.07162
50.01000,9.43957,-0.07154
50.11000,9.43957,-0.07150
50.21000,9.43957,-0.07140
50.31000,9.43957,-0.07132
50.41000,9.43957,-0.07126
50.51000,9.43957,-0.07118
50.61000,9.43957,-0.07113
50.71000,9.43957,-0.07108
50.81000,9.43957,-0.07098
50.91000,9.43957,-0.07093
51.01000,9.43957,-0.07085
51.11000,9.43957,-0.07079
51.21000,9.43957,-0.07070
51.31000,9.43957,-0.07064
51.41000,9.43957,-0.07056
51.51000,9.43957,-0.07048
51.61000,9.43957,-0.07044
51.71000,9.43957,-0.07035
51.81000,9.43957,-0.07028
51.91000,9.43957,-0.07023
52.01000,9.43957,-0.07017
52.11000,9.43957,-0.07010
52.21000,9.43957,-0.07002
52.31000,9.43957,-0.06996
52.41000,9.43957,-0.06989
52.51000,9.43957,-0.06986
52.61000,9.43957,-0.06978
52.71000,9.43957,-0.06970
52.81000,9.43957,-0.06966
52.91000,9.43957,-0.06958
53.01000,9.43957,-0.06953
53.11000,9.43957,-0.06943
53.21000,9.43957,-0.06938
53.31000,9.43957,-0.06929
53.41000,9.43957,-0.06925
53.51000,9.43957,-0.06917
53.61000,9.43957,-0.06912
53.71000,9.43957,-0.06906
53.81000,9.43957,-0.06902
53.91000,9.43957,-0.06892
54.01000,9.43957,-0.06886
54.11000,9.43957,-0.06877
54.21000,9.43957,-0.06872
54.31000,9.43957,-0.06865
54.41000,9.43957,-0.06860
54.51000,9.43957,-0.06853
54.61000,9.43957,-0.06844
54.71000,9.43957,-0.06840
54.81000,9.43957,-0.06830
54.91000,9.43957,-0.06826
55.01000,9.43957,-0.06817
55.11000,9.43957,-0.06816
55.21000,9.43957,-0.06805
55.31000,9.43957,-0.06803
55.41000,9.43957,-0.06795
55.51000,9.43957,-0.06788
55.61000,9.43957,-0.06780
55.71000,9.43957,-0.06775
55.81000,9.43957,-0.06770
55.91000,9.43957,-0.06759
56.01000,9.43957,-0.06755
56.11000,9.43957,-0.06750
56.21000,9.43957,-0.06739
56.31000,9.43957,-0.06737
56.41000,9.43957,-0.06730
56.51000,9.43957,-0.06726
56.61000,9.43957,-0.06719
56.71000,9.43957,-0.06714
56.81000,9.43957,-0.06708
56.91000,9.43957,-0.06701
57.01000,9.43957,-0.06695
57.11000,9.43957,-0.06689
57.21000,9.43957,-0.06682
57.31000,9.43957,-0.06676
57.41000,9.43957,-0.06673
57.51000,9.43957,-0.06665
57.61000,9.43957,-0.06662
57.71000,9.43957,-0.06650
57.81000,9.43957,-0.06647
57.91000,9.43957,-0.06645
58.01000,9.43957,-0.06635
58.11000,9.43957,-0.06630
58.21000,9.43957,-0.06627
58.31000,9.43957,-0.06614
58.41000,9.43957,-0.06612
58.51000,9.43957,-0.06604
58.61000,9.43957,-0.06603
58.71000,9.43957,-0.06593
58.81000,9.43957,-0.06587
58.91000,9.43957,-0.06580
59.01000,9.43957,-0.06576
59.11000,9.43957,-0.06572
59.21000,9.43957,-0.06567
59.31000,9.43957,-0.06560
59.41000,9.43957,-0.06554
59.51000,9.43957,-0.06547
59.61000,9.43957,-0.06540
59.71000,9.43957,-0.06536
59.81000,9.43957,-0.06532
59.91000,9.43957,-0.06528
60.01000,9.43957,-0.06518
60.11000,9.43957,-0.06519
60.21000,9.43957,-0.06510
60.31000,9.43957,-0.06498
60.41000,9.43957,-0.06496
60.51000,9.43957,-0.06494
60.61000,9.43957,-0.06487
60.71000,9.43957,-0.06481
60.81000,9.43957,-0.06478
60.91000,9.43957,-0.06475
61.01000,9.43957,-0.06463
61.11000,9.43957,-0.06460
61.21000,9.43957,-0.06455
61.31000,9.43957,-0.06450
61.41000,9.43957,-0.06445
61.51000,9.43957,-0.06439
61.61000,9.43957,-0.06435
61.71000,9.43957,-0.06427
61.81000,9.43957,-0.06425
61.91000,9.43957,-0.06418
62.01000,9.43957,-0.06415
62.11000,9.43957,-0.06405
62.21000,9.43957,-0.06401
62.31000,9.43957,-0.06396
62.41000,9.43957,-0.06394
62.51000,9.43957,-0.06388
62.61000,9.43957,-0.06381
62.71000,9.43957,-0.06374
62.81000,9.43957,-0.06372
62.91000,9.43957,-0.06365
63.01000,9.43957,-0.06361
63.11000,9.43957,-0.06357
63.21000,9.43957,-0.06351
63.31000,9.43957,-0.06350
63.41000,9.43957,-0.06340
63.51000,9.43957,-0.06335
63.61000,9.43957,-0.06329
63.71000,9.43957,-0.06321
63.81000,9.43957,-0.06319
63.91000,9.43957,-0.06314
64.01000,9.43957,-0.06311
64.11000,9.43957,-0.06307
64.21000,9.43957,-0.06300
64.31000,9.43957,-0.06292
64.41000,9.43957,-0.06290
64.51000,9.43957,-0.06286
64.61000,9.43957,-0.06281
64.71000,9.43957,-0.06274
64.81000,9.43957,-0.06270
64.91000,9.43957,-0.06260
65.01000,9.43957,-0.06257
65.11000,9.43957,-0.06256
65.21000,9.43957,-0.06249
65.31000,9.43957,-0.06244
65.41000,9.43957,-0.06238
65.51000,9.43957,-0.06233
65.61000,9.43957,-0.06231
65.71000,9.43957,-0.06224
65.81000,9.43957,-0.06218
65.91000,9.43957,-0.06215
66.01000,9.43957,-0.06214
66.11000,9.43957,-0.06207
66.21000,9.43957,-0.06201
66.31000,9.43957,-0.06196
66.41000,9.43957,-0.06193
66.51000,9.43957,-0.06187
66.61000,9.43957,-0.06183
66.71000,9.43957,-0.06178
66.81000,9.43957,-0.06174
66.91000,9.43957,-0.06166
67.01000,9.43957,-0.06161
67.11000,9.43957,-0.06161
67.21000,9.43957,-0.06157
67.31000,9.43957,-0.06151
67.41000,9.43957,-0.06147
67.51000,9.43957,-0.06143
67.61000,9.43957,-0.06133
67.71000,9.43957,-0.06132
67.81000,9.43957,-0.06130
67.91000,9.43957,-0.06123
68.01000,9.43957,-0.06120
68.11000,9.43957,-0.06115
68.21000,9.43957,-0.06107
68.31000,9.43957,-0.06103
68.41000,9.43957,-0.06102
68.51000,9.43957,-0.06093
68.61000,9.43957,-0.06090
68.71000,9.43957,-0.06088
68.81000,9.43957,-0.06079
68.91000,9.43957,-0.06079
69.01000,9.43957,-0.06073
69.11000,9.43957,-0.06066
69.21000,9.43957,-0.06063
69.31000,9.43957,-0.06059
69.41000,9.43957,-0.06053
69.51000,9.43957,-0.06052
69.61000,9.43957,-0.06043
69.71000,9.43957,-0.06032
69.81000,9.43957,-0.06035
69.91000,9.43957,-0.06029
70.01000,9.43957,-0.06026
70.11000,9.43957,-0.06025
70.21000,9.43957,-0.06016
70.31000,9.43957,-0.06014
70.41000,9.43957,-0.06008
70.51000,9.43957,-0.06001
70.61000,9.43957,-0.06002
70.71000,9.43957,-0.05993
70.81000,9.43957,-0.05992
70.91000,9.43957,-0.05985
71.01000,9.43957,-0.05984
71.11000,9.43957,-0.05978
71.21000,9.43957,-0.05974
71.31000,9.43957,-0.05971
71.41000,9.43957,-0.05962
71.51000,9.43957,-0.05960
71.61000,9.43957,-0.05954
71.71000,9.43957,-0.05948
71.81000,9.43957,-0.05946
71.91000,9.43957,-0.05941
72.01000,9.43957,-0.05935
72.11000,9.43957,-0.05930
72.21000,9.43957,-0.05930
72.31000,9.43957,-0.05927
72.41000,9.43957,-0.05922
72.51000,9.43957,-0.05916
72.61000,9.43957,-0.05915
72.71000,9.43957,-0.05910
72.81000,9.43957,-0.05904
72.91000,9.43957,-0.05903
73.01000,9.43957,-0.05895
73.11000,9.43957,-0.05892
73.21000,9.43957,-0.05892
73.31000,9.43957,-0.05883
73.41000,9.43957,-0.05882
73.51000,9.43957,-0.05878
73.61000,9.43957,-0.05872
73.71000,9.43957,-0.05866
73.81000,9.43957,-0.05863
73.91000,9.43957,-0.05858
74.01000,9.43957,-0.05855
74.11000,9.43957,-0.05851
74.21000,9.43957,-0.05848
74.31000,9.43957,-0.05843
74.41000,9.43957,-0.05837
74.51000,9.43957,-0.05836
74.61000,9.43957,-0.05833
74.71000,9.43957,-0.05825
74.81000,9.43957,-0.05822
74.91000,9.43957,-0.05813
75.01000,9.43957,-0.05810
75.11000,9.43957,-0.05810
75.21000,9.43957,-0.05803
75.31000,9.43957,-0.05800
75.41000,9.43957,-0.05793
75.51000,9.43957,-0.05793
75.61000,9.43957,-0.05783
75.71000,9.43957,-0.05784
75.81000,9.43957,-0.05778
75.91000,9.43957,-0.05775
76.01000,9.43957,-0.05768
76.11000,9.43957,-0.05762
76.21000,9.43957,-0.05763
76.31000,9.43957,-0.05757
76.41000,9.43957,-0.05753
76.51000,9.43957,-0.05750
76.61000,9.43957,-0.05743
76.71000,9.43957,-0.05742
76.81000,9.43957,-0.05736
76.91000,9.43957,-0.05730
77.01000,9.43957,-0.05730
77.11000,9.43957,-0.05728
77.21000,9.43957,-0.05721
77.31000,9.43957,-0.05718
77.41000,9.43957,-0.05712
77.51000,9.43957,-0.05710
77.61000,9.43957,-0.05704
77.71000,9.43957,-0.05700
77.81000,9.43957,-0.05693
77.91000,9.43957,-0.05693
78.01000,9.43957,-0.05688
78.11000,9.43957,-0.05687
78.21000,9.43957,-0.05684
78.31000,9.43957,-0.05679
78.41000,9.43957,-0.05672
78.51000,9.43957,-0.05672
78.61000,9.43957,-0.05665
78.71000,9.43957,-0.05666
78.81000,9.43957,-0.05658
78.91000,9.43957,-0.05655
79.01000,9.43957,-0.05653
79.11000,9.43957,-0.05647
79.21000,9.43957,-0.05642
79.31000,9.43957,-0.05641
79.41000,9.43957,-0.05639
79.51000,9.43957,-0.05634
79.61000,9.43957,-0.05627
79.71000,9.43957,-0.05626
79.81000,9.43957,-0.05621
79.91000,9.43957,-0.05619
80.01000,9.43957,-0.05614
80.11000,9.43957,-0.05610
80.21000,9.43957,-0.05608
80.31000,9.43957,-0.05603
80.41000,9.43957,-0.05600
80.51000,9.43957,-0.05597
80.61000,9.43957,-0.05595
80.71000,9.43957,-0.05589
80.81000,9.43957,-0.05582
80.91000,9.43957,-0.05582
81.01000,9.43957,-0.05574
81.11000,9.43957,-0.05573
81.21000,9.43957,-0.05571
81.31000,9.43957,-0.05566
81.41000,9.43957,-0.05563
81.51000,9.43957,-0.05560
81.61000,9.43957,-0.05554
81.71000,9.43957,-0.05550
81.81000,9.43957,-0.05548
81.91000,9.43957,-0.05546
82.01000,9.43957,-0.05540
82.11000,9.43957,-0.05536
82.21000,9.43957,-0.05535
82.31000,9.43957,-0.05530
82.41000,9.43957,-0.05524
82.51000,9.43957,-0.05524
82.61000,9.43957,-0.05519
82.71000,9.43957,-0.05514
82.81000,9.43957,-0.05511
82.91000,9.43957,-0.05508
83.01000,9.43957,-0.05504
83.11000,9.43957,-0.05501
83.21000,9.43957,-0.05496
83.31000,9.43957,-0.05492
83.41000,9.43957,-0.05489
83.51000,9.43957,-0.05489
83.61000,9.43957,-0.05482
83.71000,9.43957,-0.05478
83.81000,9.43957,-0.05476
83.91000,9.43957,-0.05476
84.01000,9.43957,-0.05468
84.11000,9.43957,-0.05463
84.21000,9.43957,-0.05462
84.31000,9.43957,-0.05456
84.41000,9.43957,-0.05451
84.51000,9.43957,-0.05452
84.61000,9.43957,-0.05453
84.71000,9.43957,-0.05445
84.81000,9.43957,-0.05436
84.91000,9.43957,-0.05435
85.01000,9.43957,-0.05433
85.11000,9.43957,-0.05430
85.21000,9.43957,-0.05427
85.31000,9.43957,-0.05423
85.41000,9.43957,-0.05419
85.51000,9.43957,-0.05413
85.61000,9.43957,-0.05412
85.71000,9.43957,-0.05410
85.81000,9.43957,-0.05405
85.91000,9.43957,-0.05405
86.01000,9.43957,-0.05401
86.11000,9.43957,-0.05394
86.21000,9.43957,-0.05393
86.31000,9.43957,-0.05386
86.41000,9.43957,-0.05382
86.51000,9.43957,-0.05383
86.61000,9.43957,-0.05379
86.71000,9.43957,-0.05375
86.81000,9.43957,-0.05374
86.91000,9.43957,-0.05369
87.01000,9.43957,-0.05364
87.11000,9.43957,-0.05363
87.21000,9.43957,-0.05358
87.31000,9.43957,-0.05357
87.41000,9.43957,-0.05353
87.51000,9.43957,-0.05350
87.61000,9.43957,-0.05344
87.71000,9.43957,-0.05344
87.81000,9.43957,-0.05341
87.91000,9.43957,-0.05335
88.01000,9.43957,-0.05334
88.11000,9.43957,-0.05325
88.21000,9.43957,-0.05326
88.31000,9.43957,-0.05322
88.41000,9.43957,-0.05319
88.51000,9.43957,-0.05317
88.61000,9.43957,-0.05318
88.71000,9.43957,-0.05314
88.81000,9.43957,-0.05304
88.91000,9.43957,-0.05303
89.01000,9.43957,-0.05300
89.11000,9.43957,-0.05294
89.21000,9.43957,-0.05294
89.31000,9.43957,-0.05288
89.41000,9.43957,-0.05286
89.51000,9.43957,-0.05282
89.61000,9.43957,-0.05279
89.71000,9.43957,-0.05273
89.81000,9.43957,-0.05272
89.91000,9.43957,-0.05273
90.01000,9.43957,-0.05266
90.11000,9.43957,-0.05262
90.21000,9.43957,-0.05261
90.31000,9.43957,-0.05258
90.41000,9.43957,-0.05253
90.51000,9.43957,-0.05252
90.61000,9.43957,-0.05248
90.71000,9.43957,-0.05243
90.81000,9.43957,-0.05244
90.91000,9.43957,-0.05242
91.01000,9.43957,-0.05236
91.11000,9.43957,-0.05237
91.21000,9.43957,-0.05231
91.31000,9.43957,-0.05230
91.41000,9.43957,-0.05224
91.51000,9.43957,-0.05223
91.61000,9.43957,-0.05218
91.71000,9.43957,-0.05215
91.81000,9.43957,-0.05210
91.91000,9.43957,-0.05208
92.01000,9.43957,-0.05210
92.11000,9.43957,-0.05207
92.21000,9.43957,-0.05202
92.31000,9.43957,-0.05198
92.41000,9.43957,-0.05197
92.51000,9.43957,-0.05193
92.61000,9.43957,-0.05193
92.71000,9.43957,-0.05188
92.81000,9.43957,-0.05186
92.91000,9.43957,-0.05183
93.01000,9.43957,-0.05178
93.11000,9.43957,-0.05175
93.21000,9.43957,-0.05175
93.31000,9.43957,-0.05168
93.41000,9.43957,-0.05170
93.51000,9.43957,-0.05165
93.61000,9.43957,-0.05160
93.71000,9.43957,-0.05159
93.81000,9.43957,-0.05159
93.91000,9.43957,-0.05155
94.01000,9.43957,-0.05151
94.11000,9.43957,-0.05146
94.21000,9.43957,-0.05144
94.31000,9.43957,-0.05141
94.41000,9.43957,-0.05138
94.51000,9.43957,-0.05134
94.61000,9.43957,-0.05134
94.71000,9.43957,-0.05131
94.81000,9.43957,-0.05127
94.91000,9.43957,-0.05127
95.01000,9.43957,-0.05123
95.11000,9.43957,-0.05116
95.21000,9.43957,-0.05117
95.31000,9.43957,-0.05111
95.41000,9.43957,-0.05109
95.51000,9.43957,-0.05107
95.61000,9.43957,-0.05105
95.71000,9.43957,-0.05099
95.81000,9.43957,-0.05099
95.91000,9.43957,-0.05097
96.01000,9.43957,-0.05092
96.11000,9.43957,-0.05090
96.21000,9.43957,-0.05086
96.31000,9.43957,-0.05084
96.41000,9.43957,-0.05083
96.51000,9.43957,-0.05078
96.61000,9.43957,-0.05072
96.71000,9.43957,-0.05078
96.81000,9.43957,-0.05072
96.91000,9.43957,-0.05068
97.01000,9.43957,-0.05062
97.11000,9.43957,-0.05058
97.21000,9.43957,-0.05059
97.31000,9.43957,-0.05053
97.41000,9.43957,-0.05048
97.51000,9.43957,-0.05047
97.61000,9.43957,-0.05046
97.71000,9.43957,-0.05043
97.81000,9.43957,-0.05042
97.91000,9.43957,-0.05038
98.01000,9.43957,-0.05036
98.11000,9.43957,-0.05031
98.21000,9.43957,-0.05028
98.31000,9.43957,-0.05026
98.41000,9.43957,-0.05026
98.51000,9.43957,-0.05021
98.61000,9.43957,-0.05018
98.71000,9.43957,-0.05014
98.81000,9.43957,-0.05011
98.91000,9.43957,-0.05011
99.01000,9.43957,-0.05007
99.11000,9.43957,-0.05001
99.21000,9.43957,-0.05000
99.31000,9.43957,-0.04999
99.41000,9.43957,-0.04993
99.51000,9.43957,-0.04990
99.61000,9.43957,-0.04987
99.71000,9.43957,-0.04978
99.81000,9.43957,-0.04981
99.91000,9.43957,-0.04976
100.01000,9.43957,-0.04975
100.11000,9.43957,-0.04976
100.21000,9.43957,-0.04973
100.31000,9.43957,-0.04969
100.41000,9.43957,-0.04965
100.51000,9.43957,-0.04961
100.61000,9.43957,-0.04963
100.71000,9.43957,-0.04962
100.81000,9.43957,-0.04956
100.91000,9.43957,-0.04948
101.01000,9.43957,-0.04950
101.11000,9.43957,-0.04946
101.21000,9.43957,-0.04944
101.31000,9.43957,-0.04941
101.41000,9.43957,-0.04937
101.51000,9.43957,-0.04938
101.61000,9.43957,-0.04934
101.71000,9.43957,-0.04929
101.81000,9.43957,-0.04928
101.91000,9.43957,-0.04923
102.01000,9.43957,-0.04922
102.11000,9.43957,-0.04919
102.21000,9.43957,-0.04919
102.31000,9.43957,-0.04917
102.41000,9.43957,-0.04911
102.51000,9.43957,-0.04912
102.61000,9.43957,-0.04906
102.71000,9.43957,-0.04908
102.81000,9.43957,-0.04898
102.91000,9.43957,-0.04897
103.01000,9.43957,-0.04897
103.11000,9.43957,-0.04895
103.21000,9.43957,-0.04892
103.31000,9.43957,-0.04891
103.41000,9.43957,-0.04888
103.51000,9.43957,-0.04885
103.61000,9.43957,-0.04882
103.71000,9.43957,-0.04881
103.81000,9.43957,-0.04880
103.91000,9.43957,-0.04877
104.01000,9.43957,-0.04871
104.11000,9.43957,-0.04869
104.21000,9.43957,-0.04864
104.31000,9.43957,-0.04863
104.41000,9.43957,-0.04859
104.51000,9.43957,-0.04859
104.61000,9.43957,-0.04856
104.71000,9.43957,-0.04851
104.81000,9.43957,-0.04853
104.91000,9.43957,-0.04849
105.01000,9.43957,-0.04843
105.11000,9.43957,-0.04844
105.21000,9.43957,-0.04840
105.31001,9.43957,-0.04838
105.41001,9.43957,-0.04835
105.51001,9.43957,-0.04833
105.61001,9.43957,-0.04829
105.71001,9.43957,-0.04828
105.81001,9.43957,-0.04824
105.91001,9.43957,-0.04822
106.01001,9.43957,-0.04822
106.11001,9.43957,-0.04818
106.21001,9.43957,-0.04816
106.31001,9.43957,-0.04812
106.41001,9.43957,-0.04813
106.51001,9.43957,-0.04808
106.61001,9.43957,-0.04806
106.71001,9.43957,-0.04806
106.81001,9.43957,-0.04799
106.91001,9.43957,-0.04800
107.01001,9.43957,-0.04796
107.11001,9.43957,-0.04793
107.21001,9.43957,-0.04793
107.31001,9.43957,-0.04792
107.41001,9.43957,-0.04791
107.51001,9.43957,-0.04785
107.61001,9.43957,-0.04785
107.71001,9.43957,-0.04781
107.81001,9.43957,-0.04780
107.91001,9.43957,-0.04775
108.01001,9.43957,-0.04777
108.11001,9.43957,-0.04772
108.21001,9.43957,-0.04771
108.31001,9.43957,-0.04768
108.41001,9.43957,-0.04767
108.51001,9.43957,-0.04766
108.61001,9.43957,-0.04762
108.71001,9.43957,-0.04758
108.81001,9.43957,-0.04759
108.91001,9.43957,-0.04756
109.01001,9.43957,-0.04752
109.11001,9.43957,-0.04754
109.21001,9.43957,-0.04749
109.31001,9.43957,-0.04749
109.41001,9.43957,-0.04747
109.51001,9.43957,-0.04743
109.61001,9.43957,-0.04736
109.71001,9.43957,-0.04740
109.81001,9.43957,-0.04736
109.91001,9.43957,-0.04737
110.01001,9.43957,-0.04735
110.11001,9.43957,-0.04733
110.21001,9.43957,-0.04727
110.31001,9.43957,-0.04721
110.41001,9.43957,-0.04721
110.51001,9.43957,-0.04722
110.61001,9.43957,-0.04725
110.71001,9.43957,-0.04718
110.81001,9.43957,-0.04714
110.91001,9.43957,-0.04716
111.01001,9.43957,-0.04707
111.11001,9.43957,-0.04711
111.21001,9.43957,-0.04710
111.31001,9.43957,-0.04707
111.41001,9.43957,-0.04705
111.51001,9.43957,-0.04704
111.61001,9.43957,-0.04700
111.71001,9.43957,-0.04700
111.81001,9.43957,-0.04699
111.91001,9.43957,-0.04697
112.01001,9.43957,-0.04693
112.11001,9.43957,-0.04693
112.21001,9.43957,-0.04688
112.31001,9.43957,-0.04686
112.41001,9.43957,-0.04685
112.51001,9.43957,-0.04683
112.61001,9.43957,-0.04680
112.71001,9.43957,-0.04678
112.81001,9.43957,-0.04677
112.91001,9.43957,-0.04676
113.01001,9.43957,-0.04670
113.11001,9.43957,-0.04670
113.21001,9.43957,-0.04670
113.31001,9.43957,-0.04668
113.41001,9.43957,-0.04665
113.51001,9.43957,-0.04660
113.61001,9.43957,-0.04660
113.71001,9.43957,-0.04659
113.81001,9.43957,-0.04655
113.91001,9.43957,-0.04654
114.01001,9.43957,-0.04649
114.11001,9.43957,-0.04647
114.21001,9.43957,-0.04645
114.31001,9.43957,-0.04641
114.41001,9.43957,-0.04642
114.51001,9.43957,-0.04641
114.61001,9.43957,-0.04637
114.71001,9.43957,-0.04635
114.81001,9.43957,-0.04634
114.91001,9.43957,-0.04629
115.01001,9.43957,-0.04628
115.11001,9.43957,-0.04626
115.21001,9.43957,-0.04624
115.31001,9.43957,-0.04625
115.41001,9.43957,-0.04623
115.51001,9.43957,-0.04614
115.61001,9.43957,-0.04616
115.71001,9.43957,-0.04614
115.81001,9.43957,-0.04610
115.91001,9.43957,-0.04609
116.01001,9.43957,-0.04607
116.11001,9.43957,-0.04607
116.21001,9.43957,-0.04601
116.31001,9.43957,-0.04599
116.41001,9.43957,-0.04600
116.51001,9.43957,-0.04597
116.61001,9.43957,-0.04597
116.71001,9.43957,-0.04592
116.81001,9.43957,-0.04588
116.91001,9.43957,-0.04587
117.01001,9.43957,-0.04586
117.11001,9.43957,-0.04583
117.21001,9.43957,-0.04583
117.31001,9.43957,-0.04580
117.41001,9.43957,-0.04579
117.51001,9.43957,-0.04577
117.61001,9.43957,-0.04575
117.71001,9.43957,-0.04572
117.81001,9.43957,-0.04571
117.91001,9.43957,-0.04570
118.01001,9.43957,-0.04567
118.11001,9.43957,-0.04567
118.21001,9.43957,-0.04562
118.31001,9.43957,-0.04559
118.41001,9.43957,-0.04560
118.51001,9.43957,-0.04560
118.61001,9.43957,-0.04558
118.71001,9.43957,-0.04553
118.81001,9.43957,-0.04551
118.91001,9.43957,-0.04548
119.01001,9.43957,-0.04546
119.11001,9.43957,-0.04544
119.21001,9.43957,-0.04543
119.31001,9.43957,-0.04542
119.41001,9.43957,-0.04541
119.51001,9.43957,-0.04536
119.61001,9.43957,-0.04538
119.71001,9.43957,-0.04534
119.81001,9.43957,-0.04532
119.91001,9.43957,-0.04530
120.01001,9.43957,-0.04527
120.11001,9.43957,-0.04526
120.21001,9.43957,-0.04523
120.31001,9.43957,-0.04521
120.41001,9.43957,-0.04521
120.51001,9.43957,-0.04520
120.61001,9.43957,-0.04523
120.71001,9.43957,-0.04513
120.81001,9.43957,-0.04513
120.91001,9.43957,-0.04514
121.01001,9.43957,-0.04510
121.11001,9.43957,-0.04510
121.21001,9.43957,-0.04512
121.31001,9.43957,-0.04505
121.41001,9.43957,-0.04505
121.51001,9.43957,-0.04505
121.61001,9.43957,-0.04504
121.71001,9.43957,-0.04500
121.81001,9.43957,-0.04498
121.91001,9.43957,-0.04497
122.01001,9.43957,-0.04497
122.11001,9.43957,-0.04495
122.21001,9.43957,-0.04491
122.31001,9.43957,-0.04490
122.41001,9.43957,-0.04491
122.51001,9.43957,-0.04489
122.61001,9.43957,-0.04487
122.71001,9.43957,-0.04486
122.81001,9.43957,-0.04489
122.91001,9.43957,-0.04483
123.01001,9.43957,-0.04480
123.11001,9.43957,-0.04479
123.21001,9.43957,-0.04478
123.31001,9.43957,-0.04478
123.41001,9.43957,-0.04474
123.51001,9.43957,-0.04472
123.61001,9.43957,-0.04471
123.71001,9.43957,-0.04471
123.81001,9.43957,-0.04469
123.91001,9.43957,-0.04469
124.01001,9.43957,-0.04467
124.11001,9.43957,-0.04466
124.21001,9.43957,-0.04461
124.31001,9.43957,-0.04462
124.41001,9.43957,-0.04457
124.51001,9.43957,-0.04458
124.61001,9.43957,-0.04457
124.71001,9.43957,-0.04454
124.81001,9.43957,-0.04454
124.91001,9.43957,-0.04449
125.01001,9.43957,-0.04450
125.11001,9.43957,-0.04447
125.21001,9.43957,-0.04450
125.31001,9.43957,-0.04444
125.41001,9.43957,-0.04443
125.51001,9.43957,-0.04444
125.61001,9.43957,-0.04442
125.71001,9.43957,-0.04438
125.81001,9.43957,-0.04440
125.91001,9.43957,-0.04442
126.01001,9.43957,-0.04435
126.11001,9.43957,-0.04432
126.21001,9.43957,-0.04430
126.31001,9.43957,-0.04429
126.41001,9.43957,-0.04429
126.51001,9.43957,-0.04426
126.61001,9.43957,-0.04425
126.71001,9.43957,-0.04421
126.81001,9.43957,-0.04421
126.91001,9.43957,-0.04419
127.01001,9.43957,-0.04415
127.11001,9.43957,-0.04415
127.21001,9.43957,-0.04410
127.31001,9.43957,-0.04409
127.41001,9.43957,-0.04409
127.51001,9.43957,-0.04404
127.61001,9.43957,-0.04406
127.71001,9.43957,-0.04405
127.81001,9.43957,-0.04402
127.91001,9.43957,-0.04398
128.01001,9.43957,-0.04398
128.11001,9.43957,-0.04395
128.21001,9.43957,-0.04396
128.31001,9.43957,-0.04390
128.41001,9.43957,-0.04389
128.51001,9.43957,-0.04389
128.61001,9.43957,-0.04389
128.71001,9.43957,-0.04386
128.81001,9.43957,-0.04381
128.91001,9.43957,-0.04383
129.01001,9.43957,-0.04379
129.11001,9.43957,-0.04384
129.21001,9.43957,-0.04375
129.31001,9.43957,-0.04376
129.41001,9.43957,-0.04377
129.51001,9.43957,-0.04375
129.61001,9.43957,-0.04370
129.71001,9.43957,-0.04372
129.81001,9.43957,-0.04367
129.91001,9.43957,-0.04366
130.01001,9.43957,-0.04364
130.11001,9.43957,-0.04363
130.21001,9.43957,-0.04362
130.31001,9.43957,-0.04357
130.41001,9.43957,-0.04357
130.51001,9.43957,-0.04357
130.61001,9.43957,-0.04354
130.71001,9.43957,-0.04353
130.81001,9.43957,-0.04350
130.91001,9.43957,-0.04347
131.01001,9.43957,-0.04346
131.11001,9.43957,-0.04348
131.21001,9.43957,-0.04347
131.31001,9.43957,-0.04346
131.41001,9.43957,-0.04343
131.51001,9.43957,-0.04343
131.61001,9.43957,-0.04341
131.71001,9.43957,-0.04338
131.81001,9.43957,-0.04338
131.91001,9.43957,-0.04336
132.01001,9.43957,-0.04330
132.11001,9.43957,-0.04334
132.21001,9.43957,-0.04334
132.31001,9.43957,-0.04328
132.41001,9.43957,-0.04327
132.51001,9.43957,-0.04327
132.61001,9.43957,-0.04328
132.71001,9.43957,-0.04327
132.81001,9.43957,-0.04320
132.91001,9.43957,-0.04324
133.01001,9.43957,-0.04321
133.11001,9.43957,-0.04321
133.21001,9.43957,-0.04321
133.31001,9.43957,-0.04315
133.41001,9.43957,-0.04318
133.51001,9.43957,-0.04318
133.61001,9.43957,-0.04314
133.71001,9.43957,-0.04316
133.81001,9.43957,-0.04312
133.91001,9.43957,-0.04312
134.01001,9.43957,-0.04306
134.11001,9.43957,-0.04307
134.21001,9.43957,-0.04306
134.31001,9.43957,-0.04300
134.41001,9.43957,-0.04304
134.51001,9.43957,-0.04302
134.61001,9.43957,-0.04299
134.71001,9.43957,-0.04297
134.81001,9.43957,-0.04296
134.91001,9.43957,-0.04296
135.01001,9.43957,-0.04294
135.11001,9.43957,-0.04298
135.21001,9.43957,-0.04294
135.31001,9.43957,-0.04292
135.41001,9.43957,-0.04292
135.51001,9.43957,-0.04288
135.61001,9.43957,-0.04287
135.71001,9.43957,-0.04288
135.81001,9.43957,-0.04284
135.91001,9.43957,-0.04288
136.01001,9.43957,-0.04277
136.11001,9.43957,-0.04287
136.21001,9.43957,-0.04284
136.31001,9.43957,-0.04277
136.41001,9.43957,-0.04283
136.51001,9.43957,-0.04277
136.61001,9.43957,-0.04279
136.71001,9.43957,-0.04277
136.81001,9.43957,-0.04272
136.91001,9.43957,-0.04269
137.01001,9.43957,-0.04273
137.11001,9.43957,-0.04273
137.21001,9.43957,-0.04266
137.31001,9.43957,-0.04266
137.41001,9.43957,-0.04262
137.51001,9.43957,-0.04261
137.61001,9.43957,-0.04259
137.71001,9.43957,-0.04260
137.81001,9.43957,-0.04257
137.91001,9.43957,-0.04254
138.01001,9.43957,-0.04256
138.11001,9.43957,-0.04252
138.21001,9.43957,-0.04253
138.31001,9.43957,-0.04249
138.41001,9.43957,-0.04250
138.51001,9.43957,-0.04247
138.61001,9.43957,-0.04246
138.71001,9.43957,-0.04241
138.81001,9.43957,-0.04243
138.91001,9.43957,-0.04239
139.01001,9.43957,-0.04238
139.11001,9.43957,-0.04234
139.21001,9.43957,-0.04233
139.31001,9.43957,-0.04234
139.41001,9.43957,-0.04235
139.51001,9.43957,-0.04232
139.61001,9.43957,-0.04230
139.71001,9.43957,-0.04228
139.81001,9.43957,-0.04225
139.91001,9.43957,-0.04227
140.01001,9.43957,-0.04223
140.11001,9.43957,-0.04222
140.21001,9.43957,-0.04218
140.31001,9.43957,-0.04219
140.41001,9.43957,-0.04217
140.51001,9.43957,-0.04216
140.61001,9.43957,-0.04213
140.71001,9.43957,-0.04213
140.81001,9.43957,-0.04213
140.91001,9.43957,-0.04214
141.01001,9.43957,-0.04212
141.11001,9.43957,-0.04207
141.21001,9.43957,-0.04207
141.31001,9.43957,-0.04205
141.41001,9.43957,-0.04203
141.51001,9.43957,-0.04205
141.61001,9.43957,-0.04205
141.71001,9.43957,-0.04199
141.81001,9.43957,-0.04199
141.91001,9.43957,-0.04198
142.01001,9.43957,-0.04197
142.11001,9.43957,-0.04192
142.21001,9.43957,-0.04193
142.31001,9.43957,-0.04192
142.41001,9.43957,-0.04194
142.51001,9.43957,-0.04191
142.61001,9.43957,-0.04185
142.71001,9.43957,-0.04188
142.81001,9.43957,-0.04184
142.91001,9.43957,-0.04183
143.01001,9.43957,-0.04182
143.11001,9.43957,-0.04185
143.21001,9.43957,-0.04180
143.31001,9.43957,-0.04179
143.41001,9.43957,-0.04174
143.51001,9.43957,-0.04175
143.61001,9.43957,-0.04170
143.71001,9.43957,-0.04171
143.81001,9.43957,-0.04170
143.91001,9.43957,-0.04168
144.01001,9.43957,-0.04166
144.11001,9.43957,-0.04166
144.21001,9.43957,-0.04165
144.31001,9.43957,-0.04160
144.41001,9.43957,-0.04161
144.51001,9.43957,-0.04161
144.61001,9.43957,-0.04160
144.71001,9.43957,-0.04157
144.81001,9.43957,-0.04154
144.91001,9.43957,-0.04156
145.01001,9.43957,-0.04153
145.11001,9.43957,-0.04156
145.21001,9.43957,-0.04154
145.31001,9.43957,-0.04150
145.41001,9.43957,-0.04147
145.51001,9.43957,-0.04146
145.61001,9.43957,-0.04150
145.71001,9.43957,-0.04145
145.81001,9.43957,-0.04141
145.91001,9.43957,-0.04143
146.01001,9.43957,-0.04139
146.11001,9.43957,-0.04137
146.21001,9.43957,-0.04136
146.31001,9.43957,-0.04139
146.41001,9.43957,-0.04139
146.51001,9.43957,-0.04131
146.61001,9.43957,-0.04129
146.71001,9.43957,-0.04128
146.81001,9.43957,-0.04125
146.91001,9.43957,-0.04124
147.01001,9.43957,-0.04121
147.11001,9.43957,-0.04123
147.21001,9.43957,-0.04122
147.31001,9.43957,-0.04120
147.41001,9.43957,-0.04113
147.51001,9.43957,-0.04119
147.61001,9.43957,-0.04113
147.71001,9.43957,-0.04114
147.81001,9.43957,-0.04111
147.91001,9.43957,-0.04112
148.01001,9.43957,-0.04110
148.11001,9.43957,-0.04107
148.21001,9.43957,-0.04105
148.31001,9.43957,-0.04105
148.41001,9.43957,-0.04103
148.51001,9.43957,-0.04104
148.61001,9.43957,-0.04101
148.71001,9.43957,-0.04098
148.81001,9.43957,-0.04099
148.91001,9.43957,-0.04098
149.01001,9.43957,-0.04097
149.11001,9.43957,-0.04096
149.21001,9.43957,-0.04098
149.31001,9.43957,-0.04092
149.41001,9.43957,-0.04094
149.51001,9.43957,-0.04087
149.61001,9.43957,-0.04089
149.71001,9.43957,-0.04083
149.81001,9.43957,-0.04086
149.91001,9.43957,-0.04085
150.01001,9.43957,-0.04084
150.11001,9.43957,-0.04083
150.21001,9.43957,-0.04079
150.31001,9.43957,-0.04080
150.41001,9.43957,-0.04080
150.51001,9.43957,-0.04075
150.61001,9.43957,-0.04076
150.71001,9.43957,-0.04071
150.81001,9.43957,-0.04073
150.91001,9.43957,-0.04069
151.01001,9.43957,-0.04067
151.11001,9.43957,-0.04068
151.21001,9.43957,-0.04069
151.31001,9.43957,-0.04063
151.41001,9.43957,-0.04066
151.51001,9.43957,-0.04063
151.61001,9.43957,-0.04061
151.71001,9.43957,-0.04058
151.81001,9.43957,-0.04061
151.91001,9.43957,-0.04059
152.01001,9.43957,-0.04056
152.11001,9.43957,-0.04056
152.21001,9.43957,-0.04055
152.31001,9.43957,-0.04051
152.41001,9.43957,-0.04051
152.51001,9.43957,-0.04051
152.61001,9.43957,-0.04053
152.71001,9.43957,-0.04051
152.81001,9.43957,-0.04050
152.91001,9.43957,-0.04045
153.01001,9.43957,-0.04045
153.11001,9.43957,-0.04042
153.21001,9.43957,-0.04043
153.31001,9.43957,-0.04041
153.41001,9.43957,-0.04037
153.51001,9.43957,-0.04040
153.61001,9.43957,-0.04037
153.71001,9.43957,-0.04034
153.81001,9.43957,-0.04036
153.91001,9.43957,-0.04033
154.01001,9.43957,-0.04032
154.11001,9.43957,-0.04029
154.21001,9.43957,-0.04026
154.31001,9.43957,-0.04027
154.41001,9.43957,-0.04029
154.51001,9.43957,-0.04028
154.61001,9.43957,-0.04024
154.71001,9.43957,-0.04022
154.81001,9.43957,-0.04021
154.91001,9.43957,-0.04018
155.01001,9.43957,-0.04019
155.11001,9.43957,-0.04018
155.21001,9.43957,-0.04019
155.31001,9.43957,-0.04014
155.41001,9.43957,-0.04012
155.51001,9.43957,-0.04012
155.61001,9.43957,-0.04012
155.71001,9.43957,-0.04007
155.81001,9.43957,-0.04005
155.91001,9.43957,-0.04008
156.01001,9.43957,-0.04005
156.11001,9.43957,-0.04004
156.21001,9.43957,-0.04005
156.31001,9.43957,-0.04003
156.41001,9.43957,-0.04004
156.51001,9.43957,-0.04000
156.61001,9.43957,-0.03999
156.71001,9.43957,-0.03996
156.81001,9.43957,-0.03995
156.91001,9.43957,-0.03997
157.01001,9.43957,-0.03995
157.11001,9.43957,-0.03992
157.21001,9.43957,-0.03990
157.31001,9.43957,-0.03989
157.41001,9.43957,-0.03988
157.51001,9.43957,-0.03988
157.61001,9.43957,-0.03988
157.71001,9.43957,-0.03984
157.81001,9.43957,-0.03985
157.91001,9.43957,-0.03986
158.01001,9.43957,-0.03979
158.11001,9.43957,-0.03982
158.21001,9.43957,-0.03981
158.31001,9.43957,-0.03981
158.41001,9.43957,-0.03980
158.51001,9.43957,-0.03977
158.61001,9.43957,-0.03977
158.71001,9.43957,-0.03978
158.81001,9.43957,-0.03978
158.91001,9.43957,-0.03975
159.01001,9.43957,-0.03972
159.11001,9.43957,-0.03972
159.21001,9.43957,-0.03971
159.31001,9.43957,-0.03967
159.41001,9.43957,-0.03965
159.51001,9.43957,-0.03968
159.61001,9.43957,-0.03962
159.71001,9.43957,-0.03967
159.81001,9.43957,-0.03962
159.91001,9.43957,-0.03963
160.01001,9.43957,-0.03959
160.11001,9.43957,-0.03960
160.21001,9.43957,-0.03960
160.31001,9.43957,-0.03962
160.41001,9.43957,-0.03954
160.51001,9.43957,-0.03957
160.61001,9.43957,-0.03955
160.71001,9.43957,-0.03951
160.81001,9.43957,-0.03950
160.91001,9.43957,-0.03951
161.01001,9.43957,-0.03952
161.11001,9.43957,-0.03950
161.21001,9.43957,-0.03946
161.31001,9.43957,-0.03951
161.41001,9.43957,-0.03945
161.51001,9.43957,-0.03946
161.61001,9.43957,-0.03945
161.71001,9.43957,-0.03946
161.81001,9.43957,-0.03944
161.91001,9.43957,-0.03944
162.01001,9.43957,-0.03939
162.11001,9.43957,-0.03941
162.21001,9.43957,-0.03936
162.31001,9.43957,-0.03939
162.41001,9.43957,-0.03935
162.51001,9.43957,-0.03934
162.61001,9.43957,-0.03936
162.71001,9.43957,-0.03936
162.81001,9.43957,-0.03932
162.91001,9.43957,-0.03929
163.01001,9.43957,-0.03928
163.11001,9.43957,-0.03927
163.21001,9.43957,-0.03930
163.31001,9.43957,-0.03926
163.41001,9.43957,-0.03926
163.51001,9.43957,-0.03926
163.61001,9.43957,-0.03923
163.71001,9.43957,-0.03923
163.81001,9.43957,-0.03921
163.91001,9.43957,-0.03922
164.01001,9.43957,-0.03923
164.11001,9.43957,-0.03918
164.21001,9.43957,-0.03920
164.31001,9.43957,-0.03918
164.41001,9.43957,-0.03917
164.51001,9.43957,-0.03922
164.61001,9.43957,-0.03919
164.71001,9.43957,-0.03918
164.81001,9.43957,-0.03920
164.91001,9.43957,-0.03918
165.01001,9.43957,-0.03917
165.11001,9.43957,-0.03913
165.21001,9.43957,-0.03913
165.31001,9.43957,-0.03916
165.41001,9.43957,-0.03912
165.51001,9.43957,-0.03912
165.61001,9.43957,-0.03911
165.71001,9.43957,-0.03908
165.81001,9.43957,-0.03910
165.91001,9.43957,-0.03908
166.01001,9.43957,-0.03905
166.11001,9.43957,-0.03902
166.21001,9.43957,-0.03906
166.31001,9.43957,-0.03903
166.41001,9.43957,-0.03903
166.51001,9.43957,-0.03903
166.61001,9.43957,-0.03900
166.71001,9.43957,-0.03905
166.81001,9.43957,-0.03897
166.91001,9.43957,-0.03899
167.01001,9.43957,-0.03898
167.11001,9.43957,-0.03897
167.21001,9.43957,-0.03896
167.31001,9.43957,-0.03893
167.41001,9.43957,-0.03890
167.51001,9.43957,-0.03895
167.61001,9.43957,-0.03889
167.71001,9.43957,-0.03889
167.81001,9.43957,-0.03891
167.91001,9.43957,-0.03886
168.01001,9.43957,-0.03889
168.11001,9.43957,-0.03887
168.21001,9.43957,-0.03883
168.31001,9.43957,-0.03886
168.41001,9.43957,-0.03881
168.51001,9.43957,-0.03881
168.61001,9.43957,-0.03883
168.71001,9.43957,-0.03879
168.81001,9.43957,-0.03879
168.91001,9.43957,-0.03878
169.01001,9.43957,-0.03879
169.11001,9.43957,-0.03875
169.21001,9.43957,-0.03875
169.31001,9.43957,-0.03873
169.41001,9.43957,-0.03873
169.51001,9.43957,-0.03872
169.61001,9.43957,-0.03870
169.71001,9.43957,-0.03872
169.81001,9.43957,-0.03869
169.91001,9.43957,-0.03864
170.01001,9.43957,-0.03865
170.11001,9.43957,-0.03862
170.21001,9.43957,-0.03865
170.31001,9.43957,-0.03863
170.41001,9.43957,-0.03860
170.51001,9.43957,-0.03860
170.61001,9.43957,-0.03861
170.71001,9.43957,-0.03859
170.81001,9.43957,-0.03858
170.91001,9.43957,-0.03857
171.01001,9.43957,-0.03855
171.11001,9.43957,-0.03853
171.21001,9.43957,-0.03855
171.31001,9.43957,-0.03856
171.41001,9.43957,-0.03848
171.51001,9.43957,-0.03855
171.61001,9.43957,-0.03850
171.71001,9.43957,-0.03851
171.81001,9.43957,-0.03845
171.91001,9.43957,-0.03850
172.01001,9.43957,-0.03845
172.11001,9.43957,-0.03847
172.21001,9.43957,-0.03847
172.31001,9.43957,-0.03843
172.41001,9.43957,-0.03841
172.51001,9.43957,-0.03841
172.61001,9.43957,-0.03843
172.71001,9.43957,-0.03839
172.81001,9.43957,-0.03839
172.91001,9.43957,-0.03838
173.01001,9.43957,-0.03838
173.11001,9.43957,-0.03839
173.21001,9.43957,-0.03832
173.31001,9.43957,-0.03835
173.41001,9.43957,-0.03835
173.51001,9.43957,-0.03835
173.61001,9.43957,-0.03832
173.71001,9.43957,-0.03830
173.81001,9.43957,-0.03830
173.91001,9.43957,-0.03831
174.01001,9.43957,-0.03830
174.11001,9.43957,-0.03826
174.21001,9.43957,-0.03823
174.31001,9.43957,-0.03828
174.41001,9.43957,-0.03834
174.51001,9.43957,-0.03834
174.61001,9.43957,-0.03836
174.71001,9.43957,-0.03835
174.81001,9.43957,-0.03832
174.91001,9.43957,-0.03830
175.01001,9.43957,-0.03831
175.11001,9.43957,-0.03826
175.21001,9.43957,-0.03828
175.31001,9.43957,-0.03824
175.41001,9.43957,-0.03827
175.51001,9.43957,-0.03827
175.61001,9.43957,-0.03823
175.71001,9.43957,-0.03821
175.81001,9.43957,-0.03819
175.91001,9.43957,-0.03822
176.01001,9.43957,-0.03820
176.11001,9.43957,-0.03820
176.21001,9.43957,-0.03814
176.31001,9.43957,-0.03811
176.41001,9.43957,-0.03812
176.51001,9.43957,-0.03813
176.61001,9.43957,-0.03811
176.71001,9.43957,-0.03815
176.81001,9.43957,-0.03806
176.91001,9.43957,-0.03809
177.01001,9.43957,-0.03806
177.11001,9.43957,-0.03803
177.21001,9.43957,-0.03805
177.31001,9.43957,-0.03804
177.41001,9.43957,-0.03802
177.51001,9.43957,-0.03797
177.61001,9.43957,-0.03797
177.71001,9.43957,-0.03797
177.81001,9.43957,-0.03798
177.91001,9.43957,-0.03796
178.01001,9.43957,-0.03795
178.11001,9.43957,-0.03793
178.21001,9.43957,-0.03793
178.31001,9.43957,-0.03793
178.41001,9.43957,-0.03788
178.51001,9.43957,-0.03790
178.61001,9.43957,-0.03789
178.71001,9.43957,-0.03788
178.81001,9.43957,-0.03786
178.91001,9.43957,-0.03786
179.01001,9.43957,-0.03785
179.11001,9.43957,-0.03783
179.21001,9.43957,-0.03782
179.31001,9.43957,-0.03783
179.41001,9.43957,-0.03783
179.51001,9.43957,-0.03781
179.61001,9.43957,-0.03779
179.71001,9.43957,-0.03775
179.81001,9.43957,-0.03778
179.91001,9.43957,-0.03770
180.01001,9.43957,-0.03773
180.11001,9.43957,-0.03772
180.21001,9.43957,-0.03774
180.31001,9.43957,-0.03773
180.41001,9.43957,-0.03769
180.51001,9.43957,-0.03769
180.61001,9.43957,-0.03768
180.71001,9.43957,-0.03765
180.81001,9.43957,-0.03768
180.91001,9.43957,-0.03766
181.01001,9.43957,-0.03763
181.11001,9.43957,-0.03761
181.21001,9.43957,-0.03759
181.31001,9.43957,-0.03761
181.41001,9.43957,-0.03761
181.51001,9.43957,-0.03758
181.61001,9.43957,-0.03754
181.71001,9.43957,-0.03755
181.81001,9.43957,-0.03757
181.91001,9.43957,-0.03753
182.01001,9.43957,-0.03756
182.11001,9.43957,-0.03757
182.21001,9.43957,-0.03753
182.31001,9.43957,-0.03753
182.41001,9.43957,-0.03751
182.51001,9.43957,-0.03749
182.61001,9.43957,-0.03746
182.71001,9.43957,-0.03749
182.81001,9.43957,-0.03750
182.91001,9.43957,-0.03749
183.01001,9.43957,-0.03743
183.11001,9.43957,-0.03745
183.21001,9.43957,-0.03743
183.31001,9.43957,-0.03743
183.41001,9.43957,-0.03743
183.51001,9.43957,-0.03743
183.61001,9.43957,-0.03740
183.71001,9.43957,-0.03739
183.81001,9.43957,-0.03736
183.91001,9.43957,-0.03737
184.01001,9.43957,-0.03735
184.11001,9.43957,-0.03732
184.21001,9.43957,-0.03732
184.31001,9.43957,-0.03734
184.41001,9.43957,-0.03727
184.51001,9.43957,-0.03730
184.61001,9.43957,-0.03731
184.71001,9.43957,-0.03731
184.81001,9.43957,-0.03725
184.91001,9.43957,-0.03727
185.01001,9.43957,-0.03726
185.11001,9.43957,-0.03724
185.21001,9.43957,-0.03725
185.31001,9.43957,-0.03724
185.41001,9.43957,-0.03723
185.51001,9.43957,-0.03723
185.61001,9.43957,-0.03719
185.71001,9.43957,-0.03717
185.81001,9.43957,-0.03717
185.91001,9.43957,-0.03718
186.01001,9.43957,-0.03722
186.11001,9.43957,-0.03717
186.21001,9.43957,-0.03716
186.31001,9.43957,-0.03717
186.41001,9.43957,-0.03711
186.51001,9.43957,-0.03713
186.61001,9.43957,-0.03707
186.71001,9.43957,-0.03715
186.81001,9.43957,-0.03710
186.91001,9.43957,-0.03708
187.01001,9.43957,-0.03703
187.11001,9.43957,-0.03708
187.21001,9.43957,-0.03706
187.31001,9.43957,-0.03704
187.41001,9.43957,-0.03702
187.51001,9.43957,-0.03704
187.61001,9.43957,-0.03704
187.71001,9.43957,-0.03697
187.81001,9.43957,-0.03700
187.91001,9.43957,-0.03698
188.01001,9.43957,-0.03697
188.11001,9.43957,-0.03696
188.21001,9.43957,-0.03695
188.31001,9.43957,-0.03695
188.41001,9.43957,-0.03695
188.51001,9.43957,-0.03691
188.61001,9.43957,-0.03693
188.71001,9.43957,-0.03690
188.81001,9.43957,-0.03690
188.91001,9.43957,-0.03684
189.01001,9.43957,-0.03687
189.11001,9.43957,-0.03685
189.21001,9.43957,-0.03686
189.31001,9.43957,-0.03682
189.41001,9.43957,-0.03683
189.51001,9.43957,-0.03682
189.61001,9.43957,-0.03681
189.71001,9.43957,-0.03681
189.81001,9.43957,-0.03680
189.91001,9.43957,-0.03677
190.01001,9.43957,-0.03678
